timestamp,gyro-alpha,gyro-beta,gyro-gamma,accel-x,accel-y,accel-z
1494753757870,0.024501082,-0.0053263223,0.037284255,2.8083985,-1.4305356,9.238028
1494753757962,-0.008522116,-0.0628506,-0.004261058,3.359065,-1.1288661,8.945934
1494753758062,-0.18642128,-1.2442288,0.3472762,0.6991069,-2.3690627,6.137536
1494753758161,-1.1899004,-4.1875544,1.2868395,2.2529438,-3.810372,1.6747441
1494753758262,-0.0010652645,-4.085289,1.4945661,13.972561,-7.693767,7.77517
1494753758361,0.8426242,-1.1153319,0.7041398,7.8745294,-4.9164934,5.249287
1494753758461,0.7882957,-0.6466155,1.8429075,4.9643774,-4.10845,1.4891934
1494753758562,0.59761333,0.38029942,1.973935,8.425196,-4.799177,2.432509
1494753758662,0.10865697,-0.6306366,1.4562165,9.478644,-5.662287,2.8072014
1494753758761,-0.6412892,-0.21624869,-0.054328486,10.672154,-6.884527,2.2158337
1494753758862,-0.624245,0.2396845,-1.212271,10.718841,-7.015011,2.5929205
1494753758961,-0.82344943,0.66152924,-1.6010925,7.651869,-6.281188,0.11492168
1494753759061,-0.4889564,0.5954828,-1.1323761,5.9448028,-8.804677,1.8590976
1494753759162,-0.2727077,0.44741106,-0.8586032,4.0557775,-9.118318,1.8064252
1494753759261,0.33768883,0.041545313,0.024501082,3.2501287,-7.955932,3.4739866
1494753759362,0.6178534,0.10759171,0.8223842,6.3542113,-8.456321,4.4101195
1494753759461,0.56459016,0.036218993,1.9462382,3.6523547,-6.9144545,4.023456
1494753759562,0.27803403,-0.76059884,3.0594394,7.261614,-5.673061,2.4349031
1494753759662,0.33981937,-0.1470065,1.7896442,8.822633,-4.5202527,0.7781156
1494753759762,-0.44741106,-0.21837921,-0.6061355,10.439917,-7.5908165,0.8343793
1494753759862,-1.1430287,-0.03089267,-1.8152106,11.088745,-8.243237,0.82121116
1494753759962,-1.0610034,0.046871636,-2.4224114,8.154651,-8.471883,2.7210102
1494753760061,-1.2538162,1.9259981,-0.84368944,3.0969,-10.486604,0.7182605
1494753760162,-0.033023197,0.05965481,-1.2836437,5.7975593,-8.49343,3.21661
1494753760262,0.10333065,0.5028048,-0.36325517,3.6403837,-7.3083005,2.2625206
1494753760362,0.70627034,-0.5411543,1.3965617,5.1786585,-8.043321,2.9149406
1494753760462,0.9406285,0.22690132,2.4564998,5.2409077,-8.798691,3.0621839
1494753760562,0.902279,0.5028048,3.3449304,5.5138464,-7.3897038,2.9592333
1494753760662,0.002130529,-0.49534798,2.7132285,7.8948803,-5.4300494,2.1176715
1494753760762,-0.37923414,-0.4133226,-0.2727077,6.9623384,-5.3007627,1.9237411
1494753760861,-0.87564737,-0.02876214,-2.1166804,6.9719152,-9.451111,1.033098
1494753760962,-0.8724516,-0.2790993,-3.0594394,9.921572,-12.714408,5.16549
1494753761062,-1.2250541,1.0354371,-2.606702,6.039374,-9.296685,-1.4748282
1494753761162,-0.50600064,0.018109497,-1.2921658,6.5265937,-9.387665,2.3774424
1494753761262,-0.2034655,-0.13102753,-0.68816084,4.164714,-6.6786256,2.825158
1494753761361,0.5113269,-0.13848437,0.535828,6.3063273,-5.93762,2.3918076
1494753761462,1.1930962,-0.3174488,1.200553,7.4351935,-7.4974427,2.5761611
1494753761563,1.3923006,-0.17044231,2.5374599,7.4507556,-7.1514807,3.2225955
1494753761662,1.1547467,-0.0053263223,2.9912627,7.2268977,-6.728904,2.0111294
1494753761762,0.7339672,0.041545313,1.6085494,6.8186865,-5.7975593,1.2952632
1494753761861,-0.25033715,-0.46232477,-0.3057309,6.18542,-3.9097314,1.8698715
1494753761962,-1.2346416,-0.11930962,-1.1025487,7.4723034,-6.683414,2.2481554
1494753762062,-1.6096146,-0.054328486,-2.0559604,10.645818,-9.532514,2.5234885
1494753762162,-1.361408,0.95234644,-2.63866,7.1047935,-9.932345,1.8100165
1494753762262,-0.680704,0.50173956,-1.4487597,4.9284644,-10.96664,3.3183637
1494753762361,-0.07989483,-0.046871636,-0.90973586,3.527856,-7.2843585,2.1859062
1494753762462,0.8522116,-0.39734364,0.47723848,6.06571,-6.0489507,2.717419
1494753762561,1.4956313,-0.07350325,1.3177321,7.393295,-6.211756,2.896984
1494753762662,1.526524,-0.17044231,2.5204158,8.968679,-4.369418,1.5693992
1494753762762,1.0013486,-0.23755397,2.8943236,10.107122,-6.623559,0.79726917
1494753762862,-0.25033715,0.06391586,1.0567423,10.204087,-6.143522,0.9947908
1494753762962,-1.2218584,0.22796659,-0.71159667,6.8773446,-6.003461,1.7046716
1494753763062,-1.5275892,0.59761333,-1.5094798,6.517017,-9.849746,2.5701754
1494753763162,-1.0567423,0.5944176,-2.0378509,3.0693667,-10.341754,3.5003228
1494753763262,-0.82344943,0.6380934,-1.2058793,3.6882677,-12.400767,2.1859062
1494753763362,-0.12676647,0.04580637,-1.8120148,5.919664,-8.860941,1.6915035
1494753763462,0.31318775,-0.48469532,-1.091896,5.2026005,-7.177817,2.5594015
1494753763562,1.071656,-0.59122175,0.13528858,7.60997,-4.969166,1.471237
1494753763663,1.5904398,0.101200126,1.5275892,5.0421886,-2.2505496,1.079785
1494753763762,1.3891048,0.350472,2.908172,7.145495,-2.1212628,2.0649989
1494753763861,0.58696073,1.0024139,2.610963,10.535685,-6.3542113,-0.59376204
1494753763963,-0.38242993,-0.008522116,0.33981937,11.241974,-7.1826053,-0.9564836
1494753764062,-0.5411543,-0.3472762,-1.2687299,10.6637745,-7.183802,2.4971523
1494753764161,-0.8447547,0.4293016,-1.4263891,5.2265425,-8.269572,3.5326445
1494753764262,-0.6924219,0.65513766,-0.809601,4.0174704,-10.378864,3.5936968
1494753764362,-0.23116238,0.14487597,-0.535828,4.0497923,-9.680955,2.4420857
1494753764461,-0.02876214,0.2727077,-0.7456851,4.808754,-8.553286,3.0909145
1494753764562,0.4463458,0.3270362,0.0479369,4.2042184,-7.529764,3.8019924
1494753764663,0.92038846,0.05965481,1.0588728,4.9164934,-6.8282633,3.9755719
1494753764762,0.9502159,-0.18109496,2.2050974,7.0461354,-5.7760115,3.205836
1494753764862,0.83729786,-0.36645097,2.3510387,8.2037325,-5.872977,0.91338795
1494753764962,0.22796659,-0.350472,1.530785,8.0684595,-7.4016747,1.2234371
1494753765062,-0.45912898,0.12037488,-0.049002163,6.7348895,-7.3753386,0.93493575
1494753765162,-0.8863,-0.26631612,-1.1888351,8.234857,-8.158242,1.5610195
1494753765262,-0.8607337,0.27377295,-2.4181504,9.53012,-9.470264,3.5326445
1494753765362,-0.78936094,0.8000136,-1.5808525,4.2054152,-7.7548194,1.8686744
1494753765461,-0.7840346,0.5113269,-0.53795856,4.8219223,-10.005369,3.4763808
1494753765562,-0.15339808,-0.02130529,-0.8149273,3.620033,-10.358514,3.1723173
1494753765662,0.1470065,0.49534798,0.0,2.7964275,-8.380903,3.855862
1494753765762,0.48363006,0.13102753,1.4359765,2.2062569,-7.73806,4.2437224
1494753765861,0.6583334,-0.3888215,2.3872576,3.645172,-7.967903,3.7924154
1494753765962,0.84688526,-0.7052051,3.0146985,7.750031,-6.7109475,3.0142999
1494753766061,0.19068234,-0.5123922,1.0247844,10.287885,-8.027759,1.8183962
1494753766161,-0.4346279,-0.17896444,-0.8383631,7.607576,-7.86615,1.2354081
1494753766261,-0.9470201,-0.27483824,-1.7566211,9.083601,-8.514978,1.3946224
1494753766362,-0.99708754,-0.36432046,-3.158509,8.7053175,-8.678981,1.8459295
1494753766461,-1.1899004,1.8748654,-1.2751216,2.7162218,-6.7887588,1.4688427
1494753766561,-0.25246766,0.38242993,-0.87351686,6.7827735,-11.104307,0.31244332
1494753766662,0.039414786,0.19600865,-1.103614,6.417658,-9.3026705,5.3043537
1494753766761,0.5656554,-0.10546118,0.4644553,3.879804,-8.067263,3.309984
1494753766862,0.70627034,0.05219796,1.406149,5.0541596,-8.115147,3.4021606
1494753766961,0.8404937,0.113983296,2.038916,4.361038,-6.588843,2.9508536
1494753767061,0.92784536,-0.4282363,2.4703484,6.2704144,-6.4978633,2.5127146
1494753767162,0.21411815,-0.4111921,1.4753913,9.390059,-6.519411,-0.22026655
1494753767261,-0.33449304,-0.09374327,-0.002130529,8.582016,-8.349778,0.6464345
1494753767361,-0.7488809,-0.8341021,-1.1345067,8.835801,-8.700529,2.3642743
1494753767462,-0.7978831,-0.7094661,-2.2786007,8.943541,-6.6391215,3.9228995
1494753767561,-0.9576728,1.6405072,-0.9757822,5.90889,-5.9268465,1.3371617
1494753767661,0.10652645,-0.17257284,-0.9150622,5.7544637,-11.678916,0.3866636
1494753767761,0.29188246,-0.20559604,-0.6625945,5.019444,-10.548853,4.607641
1494753767861,0.63915867,-0.3930826,0.23861924,3.1866825,-8.637083,2.3127987
1494753767962,0.98856544,-0.34408042,1.1622036,3.8534677,-8.282741,2.2828712
1494753768061,1.135572,-0.28016454,1.9004318,5.3486466,-8.276755,2.5558102
1494753768162,1.1558119,-0.83516735,2.1166804,8.237251,-7.419631,0.8415619
1494753768261,0.94595486,-0.95128113,0.84688526,8.908825,-4.915296,1.091756
1494753768362,0.38029942,-1.1110709,0.37390783,7.619547,-6.9264255,0.44771573
1494753768461,-0.3653857,-0.9470201,-0.010652645,7.65546,-5.6898203,2.1152773
1494753768562,-0.36751625,-0.5432849,-0.82344943,9.174581,-8.4826565,4.048595
1494753768661,-0.19387813,0.531567,-1.2953615,7.2867527,-5.6922145,1.2078748
1494753768762,-0.21731395,-0.13102753,-0.8522116,6.10282,-8.954314,2.9616275
1494753768861,0.06391586,0.11717909,-0.95128113,2.456451,-9.716867,2.3427265
1494753768962,0.4016047,-0.20240025,-0.69774824,2.7389667,-9.725247,3.927688
1494753769062,0.6221144,-0.45912898,0.35473305,3.205836,-7.964312,1.9883845
1494753769162,0.74461985,-0.49428272,0.76592517,6.3458314,-6.3218894,2.8502972
1494753769262,0.62744075,-0.26312032,1.1206582,8.119935,-5.0541596,0.50996494
1494753769361,0.628506,-0.39734364,1.3060142,10.19092,-3.9576154,0.93254155
1494753769462,0.31957933,-0.54648066,0.64555025,9.546879,-4.308366,-0.1388637
1494753769562,-0.3206446,-0.43249738,-0.16192019,10.654198,-5.708974,0.04070143
1494753769662,-0.386691,-0.43675843,-1.6980315,9.269152,-7.1754227,2.31639
1494753769762,-0.49854377,0.8831042,-0.6263755,6.0441623,-9.324219,1.0223241
1494753769861,0.03195793,0.76272935,-0.6679208,5.1918263,-9.791088,0.9804256
1494753769962,0.40053943,-0.08522116,-0.6668556,3.8666358,-10.193314,3.7804444
1494753770061,0.28549087,0.04580637,0.35579833,3.9971197,-9.194932,3.1783028
1494753770162,0.6466155,-0.11930962,0.84155893,5.0745106,-8.1163435,3.0334535
1494753770262,0.36751625,0.14061491,1.0333065,5.521029,-5.5030727,3.0131028
1494753770362,0.3291667,-1.2964269,2.1177456,7.827842,-2.7581203,0.9528923
1494753770461,0.4282363,-0.8404937,2.4405208,8.355764,-9.526528,0.11372458
1494753770562,-0.26844665,-1.123854,-0.15339808,9.220071,-8.463503,1.3874398
1494753770662,-0.32810146,-0.037284255,-1.598962,8.469488,-8.625112,0.6440403
1494753770762,-0.721184,-0.0053263223,-1.7449032,6.951565,-6.5505357,0.8583213
1494753770862,-0.4527374,0.5028048,-1.401888,7.0581064,-9.147048,2.3415294
1494753770962,-0.41864893,0.9012137,-0.59228706,4.9919105,-9.483433,2.480393
1494753771063,0.16724652,-0.34621096,-0.7318367,5.544971,-10.644621,3.4763808
1494753771162,0.13209279,0.48682585,-0.22690132,3.4380736,-7.839813,2.5773582
1494753771262,0.39627838,0.23648871,0.6956177,2.7641058,-7.028179,3.0071173
1494753771362,0.38562572,-0.07456851,0.98430437,5.497087,-7.7440453,2.4636335
1494753771461,0.4708469,-0.47830373,1.4860439,9.440337,-4.914099,2.847903
1494753771562,0.6423545,-0.47510794,1.5680692,9.672575,-5.770026,1.42455
1494753771662,0.27377295,-0.6295713,0.7957525,8.619126,-5.3378725,1.388637
1494753771762,-0.29507825,-0.15978967,0.112918034,9.326612,-6.063316,0.7529764
1494753771862,-0.49428272,0.22050974,-1.1270498,9.0476885,-8.364143,2.079364
1494753771962,-0.47404268,0.07350325,-0.9896307,5.0302176,-8.735245,2.7581203
1494753772062,-0.37284255,0.88203895,-0.7552725,3.70383,-9.773131,2.6922798
1494753772162,-0.13528858,-0.1438107,-0.36005938,3.2225955,-9.552865,3.1136594
1494753772263,-0.058589544,0.041545313,-0.3834952,3.4500446,-9.293094,2.2373815
1494753772362,0.44847634,0.1736381,0.18961707,3.2321723,-7.6482773,3.5194764
1494753772462,0.59122175,-0.18642128,1.2463595,4.2796354,-8.725668,2.9640217
1494753772562,0.32170987,-0.096939065,1.7907095,8.775947,-5.4911017,2.5354595
1494753772661,0.4293016,0.0127831735,1.6181368,9.617508,-6.0848637,0.62608373
1494753772762,0.11717909,-0.6146576,0.165116,8.167819,-6.597223,1.448492
1494753772861,-0.45380265,-0.099069595,-0.6327671,8.826224,-6.8881183,1.4089876
1494753772962,-0.4346279,-0.18961707,-1.6575515,9.634268,-8.746018,3.572149
1494753773062,-0.45167214,0.14274544,-1.284709,3.537433,-9.385271,4.0402155
1494753773162,-0.4282363,1.144094,-0.29933932,1.7860745,-10.556035,2.8981812
1494753773262,-0.0010652645,-0.3121225,-0.1470065,2.6036944,-10.117896,3.0897174
1494753773361,0.11504856,0.37071204,-0.30146983,3.1316159,-8.661025,3.4344823
1494753773462,0.3153183,0.022370555,0.35792887,3.3482912,-7.7332716,4.358644
1494753773562,0.51665324,0.041545313,1.3422332,4.3119574,-6.8103065,2.7868507
1494753773662,0.28549087,-0.083090626,2.819755,9.998186,-6.567295,3.108871
1494753773761,0.37071204,-0.8586032,1.3837786,10.196905,-7.382521,0.93254155
1494753773861,-0.0958738,-0.41758367,0.11930962,8.559271,-7.043741,1.1324574
1494753773962,-0.7030745,-0.05539375,-1.861017,10.011354,-9.058462,0.7517793
1494753774061,-0.66579026,-0.29294774,-2.8836708,5.627571,-11.56998,5.657499
1494753774162,-0.84688526,1.8386464,-0.78936094,-0.70509243,-10.425551,4.235343
1494753774262,-0.19813919,0.13635385,-0.37816888,1.6124948,-11.737574,1.9847932
1494753774362,-0.07350325,0.0063915867,-0.60507023,2.6252422,-9.648633,2.9005754
1494753774462,-0.18855181,0.2972088,0.10333065,2.6982653,-9.096769,3.4009635
1494753774562,-0.33768883,0.004261058,1.2154667,3.3039982,-8.070854,2.645593
1494753774661,-0.07882957,-0.49321744,3.1989892,9.326612,-4.143166,3.2956185
1494753774762,0.75101143,-0.1438107,2.7728834,9.251195,-8.232463,-1.0414777
1494753774861,0.13741912,-0.8117315,0.20985709,7.867347,-9.623494,3.2034419
1494753774962,-0.3121225,0.099069595,-1.9728698,8.157045,-9.481039,1.8650831
1494753775062,-0.14274544,-0.3717773,-3.025351,8.157045,-9.115923,2.48159
1494753775161,-0.5592638,0.51026165,-1.6916399,1.9752164,-8.781932,2.0841527
1494753775262,-0.33449304,1.0226538,-0.43782368,1.532289,-10.572795,1.7166426
1494753775362,-0.08948222,-0.082025364,-0.3653857,3.052607,-10.466252,2.9340942
1494753775463,-0.21944448,0.17896444,0.101200126,2.9616275,-9.287108,3.345897
1494753775562,-0.1470065,0.43036684,1.1909657,1.5741876,-7.690176,3.0442274
1494753775661,0.034088463,-0.046871636,2.4756746,3.642778,-6.64391,2.908955
1494753775762,0.6668556,-0.0777643,3.1031153,9.190144,-9.5971575,0.37469256
1494753775861,0.14168017,-1.2101405,0.3568636,6.8450227,-9.835381,2.6036944
1494753775962,-0.10652645,-0.23009712,-1.0077401,7.345411,-8.026561,1.7824832
1494753776062,-0.13102753,-0.17257284,-2.4543693,9.363723,-9.0716305,3.0765493
1494753776162,-0.3685815,-0.51665324,-2.9060414,7.8290396,-7.301118,1.7226281
1494753776262,-0.5294364,0.20026971,-0.36005938,1.9201498,-9.39365,2.896984
1494753776363,-0.12463594,0.8586032,0.26631612,1.8746599,-11.445481,2.6527755
1494753776462,0.06711166,-0.23009712,0.31957933,2.9460652,-11.000159,3.8163576
1494753776561,0.07882957,0.1257012,0.011717909,3.5003228,-9.425972,2.8060043
1494753776662,0.017044231,0.3930826,1.3145363,1.804031,-7.356185,3.8247373
1494753776761,0.007456851,-0.101200126,2.3233418,3.9731777,-7.705738,3.4272997
1494753776862,0.37071204,0.0053263223,2.47674,6.943185,-8.475474,2.3020248
1494753776962,0.24394555,-0.66579026,1.0599382,6.811504,-9.167398,1.6567876
1494753777062,-0.12037488,-0.6764429,-0.9235843,7.597999,-8.226477,2.719813
1494753777161,-0.37071204,-0.35153726,-2.0431771,8.231265,-8.746018,1.2210429
1494753777262,-0.47723848,-0.4527374,-2.7920582,7.065289,-9.414001,3.4943373
1494753777361,-0.78083885,0.660464,-1.071656,3.2908301,-8.374918,3.0059202
1494753777462,-0.36645097,1.0343717,-0.068176925,1.6077064,-11.109096,3.5745432
1494753777562,-0.0777643,0.07137272,0.1587244,1.7381904,-10.722432,2.9999347
1494753777662,-0.002130529,0.13315806,-0.12463594,3.5314474,-10.004171,3.0885203
1494753777762,0.06391586,0.44741106,0.44101948,2.5031378,-7.5572977,3.309984
1494753777862,0.04474111,0.09267801,1.454086,2.621651,-7.997831,2.8215668
1494753777961,0.24394555,-0.4282363,2.5800705,8.441956,-8.160637,2.8431146
1494753778062,0.4346279,-0.30786142,1.598962,7.839813,-8.152257,1.8555063
1494753778161,0.07669904,-0.85966843,-0.30466563,7.599196,-7.405266,1.8183962
1494753778262,-0.47510794,-0.098004326,-1.2154667,8.953117,-8.643068,2.099715
1494753778361,-0.5187838,0.18429075,-2.501241,7.631518,-12.398374,3.252523
1494753778462,-0.6764429,1.0801781,-1.0354371,0.23463176,-9.233239,1.7082629
1494753778562,-0.44421527,0.24927188,-0.084155895,0.49679685,-11.549629,3.4117374
1494753778662,-0.25992453,0.716923,0.08841695,0.9540894,-10.614694,2.043451
1494753778762,0.2066613,-0.13635385,0.113983296,1.496376,-8.708909,2.9628246
1494753778862,0.12676647,0.002130529,0.87564737,1.5717934,-7.013814,3.1519666
1494753778962,0.05006743,-0.5944176,0.94275904,5.877765,-8.503007,2.2744915
1494753779061,0.3206446,-0.5251754,1.8524948,9.063251,-7.443573,2.136825
1494753779162,0.16192019,-0.4165184,0.12783173,8.828619,-7.502231,1.4149733
1494753779262,-0.3153183,-0.32810146,-1.2112057,8.516175,-6.9240313,1.2449849
1494753779361,-0.3057309,0.23542345,-2.1646173,9.357738,-9.457097,3.3315318
1494753779462,-0.19600865,0.8873653,-1.1611383,3.1603463,-9.830592,1.7645266
1494753779562,-0.28442562,0.2428803,-0.35899413,3.9947255,-10.132261,4.0521865
1494753779661,0.101200126,-0.42717105,0.05219796,1.6711528,-10.921151,1.9093759
1494753779762,0.05965481,0.13741912,-0.19281286,3.5110967,-9.546879,2.6611552
1494753779862,0.24714136,0.13848437,0.1917476,3.0921116,-7.526173,3.539827
1494753779963,0.07563378,-0.26525086,1.2154667,2.6755204,-6.429629,2.956839
1494753780061,-0.07563378,-0.3174488,1.7864485,8.24204,-7.631518,2.292448
1494753780162,0.19813919,-0.00958738,1.3358417,9.817424,-7.419631,1.697489
1494753780261,-0.014913702,-0.58696073,-0.049002163,7.595605,-6.373365,1.3730747
1494753780361,-0.36112466,-0.2034655,-0.6583334,8.610746,-7.2388687,1.4867992
1494753780462,-0.24820662,0.05539375,-1.9984361,7.4746976,-9.526528,3.1483753
1494753780561,-0.083090626,0.5411543,-0.80747044,2.9747956,-9.592369,0.34835634
1494753780662,-0.14913702,0.7392935,-0.46978164,3.5889084,-10.808623,3.53863
1494753780762,0.09267801,0.010652645,-0.17257284,2.4744074,-10.129868,2.44448
1494753780861,-0.101200126,-0.04261058,-0.23329292,2.930503,-9.272743,2.2469583
1494753780962,-0.08522116,0.34088463,0.34621096,2.6755204,-7.5812397,3.1639376
1494753781062,0.008522116,0.16405073,1.3571469,1.9847932,-6.9479733,3.5122938
1494753781162,0.28868666,-0.56245965,2.2264028,6.2129536,-9.594764,2.753332
1494753781262,0.33449304,-0.5837649,2.6088326,9.275137,-9.166202,1.3263878
1494753781361,0.07456851,-0.9044095,0.1257012,7.548918,-8.358158,2.7449522
1494753781461,-0.45380265,0.46978164,-1.3422332,8.013393,-8.476671,0.93852705
1494753781562,-0.515588,0.29507825,-2.9028456,9.057265,-9.792285,2.5330653
1494753781662,-0.29614353,1.1749867,-2.1774006,4.5920787,-10.502166,1.4820108
1494753781762,-0.4708469,0.773382,-0.43569317,1.2054806,-11.63582,3.5817258
1494753781862,-0.14061491,-0.07989483,-0.41438788,2.790442,-10.869676,1.9656396
1494753781961,0.06178534,0.22796659,0.35153726,1.5502456,-8.383297,2.5582044
1494753782062,0.15978967,-0.38242993,1.2367721,2.815581,-8.635885,2.0769699
1494753782162,0.165116,-0.70840085,1.1068097,3.606865,-6.5457473,2.6408045
1494753782262,0.25672874,-0.5134575,2.1486385,8.698134,-7.1754227,2.3247697
1494753782361,0.37816888,-0.5336975,1.0439591,7.880515,-9.574412,0.033518825
1494753782462,-0.14913702,-0.45593318,-0.6221144,8.171411,-8.034941,3.762488
1494753782561,-0.18002969,0.6775082,-1.659682,8.716091,-7.574057,1.34195
1494753782662,-0.19068234,0.04261058,-1.9483687,7.819463,-7.2472486,1.9572599
1494753782762,-0.25033715,0.58696073,-0.8277105,3.6978445,-10.253169,3.6882677
1494753782862,0.07243799,0.30360037,-0.6263755,1.0929531,-10.751163,1.3192052
1494753782961,0.13315806,0.020240024,-0.39840892,2.791639,-8.740033,3.4727895
1494753783062,-0.14274544,0.33129725,0.7254451,2.585738,-7.477092,3.4237084
1494753783162,-0.066046394,-0.1470065,1.5190672,2.9616275,-7.311892,3.0178912
1494753783262,-0.21731395,-0.34301516,1.8279938,5.9519854,-5.6239796,3.9193082
1494753783362,-0.084155895,0.07669904,1.1025487,7.7608047,-9.222465,0.82599956
1494753783462,-0.2545982,-0.6668556,-0.16085494,7.169437,-8.491036,2.2972364
1494753783562,-0.34301516,-0.08628642,-0.9598033,7.6961613,-8.154651,2.4899697
1494753783661,-0.330232,0.14168017,-1.7747306,8.274361,-7.964312,2.3080103
1494753783762,-0.56245965,0.8159926,-1.6724652,8.212111,-5.6084175,0.8295909
1494753783862,-0.09267801,0.45699844,-1.454086,6.740875,-9.793482,1.614889
1494753783961,-0.21411815,0.4165184,-0.5763081,4.423288,-10.481815,4.593276
1494753784061,0.03195793,-0.08522116,-0.15020229,2.979584,-9.707291,1.7142484
1494753784161,-0.20240025,0.21624869,0.34088463,3.4763808,-8.128315,2.3355439
1494753784262,-0.082025364,-0.3930826,1.2058793,4.373009,-7.089231,1.9979613
1494753784362,0.0,-0.34194988,1.4839134,6.1279593,-6.851008,1.7657237
1494753784462,-0.046871636,-0.7637946,0.40373522,8.195353,-5.506664,2.3822308
1494753784561,-0.16405073,-0.13848437,0.37603834,8.949526,-5.6539073,1.496376
1494753784662,0.03834952,-0.39414784,-0.029827405,8.258799,-7.8517847,0.50517654
1494753784761,-0.16405073,0.1107875,-0.7840346,8.503007,-5.756858,1.8100165
1494753784862,-0.046871636,0.4250405,-0.70627034,8.204929,-6.4044895,1.6843209
1494753784961,0.18322548,0.46339005,-0.2908172,6.0824695,-9.472659,0.7469909
1494753785062,0.05006743,0.5795039,-0.24394555,4.819528,-9.854534,2.4612393
1494753785161,0.13422333,-0.4250405,-0.51665324,3.323152,-10.178948,2.3307555
1494753785262,-0.165116,0.45912898,-0.034088463,3.0310593,-8.171411,2.2541409
1494753785361,-0.039414786,-0.008522116,0.4857606,3.763685,-7.309498,3.1471782
1494753785462,-0.16085494,-0.21944448,0.6689861,5.469554,-5.0254292,2.835932
1494753785562,-0.45912898,0.6668556,0.41545314,10.213664,-6.0920463,0.5554548
1494753785662,-0.24394555,-0.20559604,0.01917476,8.857349,-5.351041,2.7820623
1494753785762,-0.22903186,-0.13422333,0.015978966,9.354146,-6.041768,1.436521
1494753785862,-0.664725,0.50600064,-0.7616641,9.873688,-5.9771247,-1.0690111
1494753785962,-1.3891048,1.5190672,-0.9853696,9.227253,-5.804742,-0.8583213
1494753786062,-1.4860439,1.3230585,-0.94275904,7.086837,-7.418434,1.0737995
1494753786162,-1.2442288,2.466087,-0.10226539,3.6762967,-11.540052,0.37948096
1494753786262,-0.50600064,0.9257148,-0.664725,3.0478187,-11.33056,2.480393
1494753786362,-0.29507825,1.0599382,0.034088463,2.6180596,-8.048109,3.3387144
1494753786462,-0.21624869,0.9619338,0.922519,2.36188,-6.9360023,2.9340942
1494753786562,-0.5486112,0.8447547,1.325189,4.811148,-6.799533,3.241749
1494753786662,-1.0727214,1.144094,0.757403,8.468291,-7.0449386,2.4121583
1494753786762,-1.0705907,1.1568772,-0.68176925,7.668628,-8.972271,-1.009156
1494753786861,-0.6924219,0.21198763,-1.0162623,6.697779,-8.6334915,-0.09816227
1494753786962,-0.8000136,0.69668293,-1.4860439,7.109582,-8.599973,-0.25617957
1494753787062,-1.2708606,1.9281287,-1.0482203,6.2249246,-7.4447703,-2.64679
1494753787162,-1.2793826,1.6799221,-1.0705907,6.160281,-9.297882,-0.830788
1494753787262,-1.1771172,1.1323761,-0.43995422,5.1798553,-9.763555,1.567005
1494753787362,-0.84688526,2.0719395,-0.50387007,3.2202013,-9.643845,2.1080947
1494753787462,-0.13209279,0.5028048,-0.05219796,2.4947581,-10.220847,4.035427
1494753787561,0.00958738,0.74675035,0.52411014,1.9991584,-7.5333557,4.4244847
1494753787663,-0.07563378,0.6061355,1.5030881,1.7262194,-5.981913,3.9695864
1494753787762,-0.00958738,-0.023435818,2.0506341,5.9890957,-10.151415,3.3650506
