timestamp,gyro-alpha,gyro-beta,gyro-gamma,accel-x,accel-y,accel-z
1494169055315,-0.66259766,0.07670593,-0.020233154,5.54068,-5.412552,5.880188
1494169055414,-0.17469788,-0.4825592,0.0095825195,5.67955,-6.4157257,6.4116974
1494169055515,0.18962097,-0.44207764,-0.043670654,5.844742,-5.7309875,4.326355
1494169055614,-0.100128174,-0.05859375,0.41012573,4.180771,-5.017517,1.436554
1494169055715,-0.54541016,-0.6178589,1.0620728,5.6412354,-4.9049835,1.1947327
1494169055814,-0.91825867,-0.69454956,1.2633972,9.002701,-7.445236,-2.9807434
1494169055914,-1.1249237,-0.84687805,-0.3217163,13.750397,-12.576004,-1.8961792
1494169056015,-0.43675232,0.6412964,-2.5459747,7.137619,-9.530579,1.8483582
1494169056115,-0.32276917,0.82450867,-1.7480927,4.6739807,-9.384537,1.2737427
1494169056214,0.8820343,-0.2514038,-0.6775055,3.6013794,-4.440506,2.5498505
1494169056315,0.7467499,-0.17044067,1.5116119,4.7170715,-4.7709045,1.9656677
1494169056414,0.20773315,0.74142456,1.957962,8.394577,-5.8219604,0.016784668
1494169056514,-0.10119629,-0.6008148,1.940918,9.979538,-5.3598785,-0.682312
1494169056615,-0.26844788,-0.20452881,-0.89375305,13.2548065,-6.3941803,-2.655136
1494169056715,-1.1824493,0.81066895,-1.4050903,6.026703,-5.9943542,-0.8810272
1494169056814,-0.6466217,1.3560791,-0.6785736,4.31485,-10.548126,2.4828186
1494169056915,0.5699158,-0.17897034,-0.0063934326,6.0769806,-10.58403,2.5737915
1494169057014,1.0151978,0.28016663,0.7893677,2.6556702,-5.5322723,2.9089813
1494169057115,0.6412964,0.18429565,2.118805,4.1783905,-7.2417297,4.1827087
1494169057214,-0.39733887,1.0684662,1.1494141,7.49675,-5.862671,-1.6854858
1494169057315,-0.9523468,-0.56565857,0.37496948,4.6093445,-10.675018,4.8027954
1494169057414,-1.1110687,0.007461548,-1.944107,11.712936,-11.1706085,0.29212952
1494169057515,-0.52197266,0.7563324,-2.0804596,2.049942,-8.884155,2.8012543
1494169057614,0.022369385,0.35153198,-1.0237122,5.839966,-12.4826355,3.0071564
1494169057715,1.1931,-0.026626587,-0.42823792,4.8463593,-5.896179,3.2082672
1494169057814,0.8085327,0.45806885,1.5563507,3.4194183,-2.7334442,3.1627655
1494169057915,0.36538696,0.052200317,2.275406,7.537445,-5.08934,0.8020935
1494169058015,-0.96513367,-0.18855286,1.2655334,8.830322,-9.214554,-1.0965118
1494169058114,-0.56777954,0.19068909,-1.6394348,10.728912,-10.038162,-0.79244995
1494169058215,-1.0929565,1.3401031,-2.5246735,7.1112823,-7.4619904,-0.24177551
1494169058315,-1.0801849,0.9054718,-1.6234589,3.8360138,-8.084488,3.2178345
1494169058414,0.67004395,-0.34301758,-0.7052002,5.547867,-10.746841,5.6718903
1494169058515,1.3337097,-0.0010681152,0.1257019,5.4640656,-6.123642,5.066162
1494169058614,0.8053436,0.11505127,2.3158875,1.8751678,-3.2984772,3.2776947
1494169058715,0.008529663,-0.94488525,3.502594,8.198242,-6.7892303,0.56266785
1494169058814,-0.43782043,-1.1888275,1.8322601,10.815109,-11.127518,0.4597168
1494169058915,-0.46658325,-0.6221161,-1.0120087,10.123184,-8.999069,-1.1276398
1494169059014,-1.09935,0.48895264,-2.3510437,10.08728,-7.9097137,-1.5849304
1494169059116,-1.272995,1.2389069,-2.4511719,6.6013184,-7.5649414,-0.007156372
1494169059215,-0.7520752,1.0247803,-0.6008148,1.3963165,-9.226517,3.785263
1494169059315,0.0234375,0.5294342,-0.24182129,5.624481,-11.323837,3.7972412
1494169059414,0.73928833,0.53263855,0.7776489,3.9964294,-8.039001,2.7509766
1494169059515,0.75527954,0.007461548,2.3318634,2.2462616,-6.2361603,2.9472961
1494169059614,0.39201355,-0.46125793,3.2266846,5.868683,-6.7628937,3.4021912
1494169059715,-0.48362732,-0.51771545,2.4309387,7.0250854,-10.471512,-0.07418823
1494169059814,-0.46658325,0.7105255,-0.9289093,4.6213074,-11.666214,1.6472473
1494169059915,-0.60720825,0.876709,-2.3840637,7.6691284,-9.746063,-0.5626068
1494169060015,-1.0567474,1.2229309,-2.469284,4.4632874,-9.770004,-0.10771179
1494169060114,-0.86605835,1.1994934,-2.3510437,4.5662384,-10.912033,1.0917816
1494169060215,-0.041549683,-0.21624756,-0.53157043,0.6277771,-9.341446,4.946457
1494169060315,0.8585968,0.30786133,-0.5507355,5.705887,-6.851471,2.9736328
1494169060414,0.78829956,-0.61253357,1.4114685,2.6053925,-6.0398407,1.3240204
1494169060514,0.5560608,-0.41970825,3.1521149,4.302887,-5.4628296,0.47886658
1494169060615,-0.05859375,-2.9976501,2.1092224,19.41269,-13.062027,-2.1140442
1494169060714,-0.7510071,0.3728485,-2.4394531,12.265991,-7.5098724,-3.9887085
1494169060815,-1.5382385,1.655426,-2.615219,4.4010468,-8.182648,0.4094391
1494169060914,-0.16725159,0.57844543,-1.1121368,2.9381866,-10.358978,2.3152313
1494169061015,0.9246521,0.09693909,-0.82025146,7.4560394,-10.026184,2.049469
1494169061115,1.5808563,0.059661865,0.7574005,2.583847,-3.0614471,2.3128357
1494169061214,1.0386353,-0.49534607,2.3499756,7.1471863,-5.4700165,1.9896088
1494169061316,0.2780304,-0.17897034,2.0261383,10.994675,-5.1731415,0.74702454
1494169061414,0.19706726,-0.38882446,0.18962097,11.447174,-6.5737457,0.29452515
1494169061515,-0.2514038,0.14060974,-1.1366425,8.521469,-7.112442,-0.4045868
1494169061614,-0.8458252,0.73716736,-1.019455,8.1671295,-6.9831543,1.7980804
1494169061715,-1.2825775,1.275116,-1.0982819,6.9580536,-11.256805,0.361557
1494169061814,-1.2453003,0.53157043,-1.4998932,4.9660797,-8.029419,3.0502472
1494169061915,-0.24926758,-0.83410645,-0.70840454,6.3762665,-5.91774,6.0094757
1494169062015,1.355011,-0.2972107,-0.9502106,8.74173,-7.5338135,2.2793121
1494169062114,1.5840454,-0.21517944,0.36325073,3.6851807,-1.2442474,2.1093292
1494169062215,1.2442322,-0.7286377,1.9228058,7.5637817,-4.313614,2.8180084
1494169062314,0.8309021,-0.6828308,2.2402496,7.7050476,-5.790848,-0.23939514
1494169062415,0.29507446,-1.8482361,2.308426,10.218948,-7.325531,-1.7788544
1494169062515,0.01171875,-1.4029541,0.70414734,10.853424,-8.929642,-1.5609894
1494169062614,-0.24819946,-1.0961609,-0.61039734,10.621185,-7.3087616,0.35437012
1494169062715,-0.2545929,-0.08735657,-1.257019,8.317963,-7.0070953,1.2976837
1494169062814,-0.8585968,0.93955994,-1.5606079,8.586105,-7.354248,-0.22981262
1494169062915,-1.4530182,1.3976288,-1.2836456,5.490402,-7.3350983,-1.3886108
1494169063014,-1.864212,1.7033539,-0.48683167,5.013962,-8.740494,-1.3383331
1494169063115,-1.3155975,0.94595337,-0.14593506,5.2030945,-8.378967,1.0032043
1494169063214,-0.1768341,0.6764374,-0.827713,11.456757,-9.7508545,5.4516296
1494169063316,0.511322,1.2559509,-0.57844543,3.7043304,0.44366455,2.5881653
1494169063415,-0.44207764,0.83410645,2.469284,1.8488312,-1.7949219,3.8115997
1494169063515,-0.81492615,0.349411,2.9401245,12.864548,-11.560867,-0.5745697
1494169063614,-0.40480042,0.5262451,-0.5571289,8.868622,-6.1619415,-2.2577057
1494169063714,-0.86180115,-0.15126038,-1.5414429,6.5869446,-8.331085,-0.37825012
1494169063815,-1.4721985,0.86286926,-1.3454285,5.52153,-10.299118,1.2354431
1494169063914,-0.7563324,0.11930847,-0.8522186,5.1073303,-6.9951324,4.3287506
1494169064014,0.2268982,0.053268433,-0.6306305,10.010666,-4.3591156,3.6176758
1494169064115,0.46232605,0.7701874,-0.7350311,6.876648,-2.7573853,1.7837067
1494169064214,0.3526001,0.7382355,0.558197,4.8750916,-3.2649536,2.990387
1494169064315,0.14060974,0.6253052,1.6181335,6.1081085,-4.076599,1.2354431
1494169064414,-0.9491577,0.8053436,2.09964,8.109665,-12.523331,-0.055038452
1494169064514,-0.7744446,0.431427,-0.23968506,8.195847,-9.204971,1.0151672
1494169064615,-0.36006165,-0.34513855,-1.5478363,6.5079346,-8.745285,0.66322327
1494169064714,-0.4697876,-0.572052,-0.9800415,6.359497,-5.970413,1.6041412
1494169064815,0.26631165,-0.8319702,-0.52731323,7.458435,-6.25531,5.624008
1494169064914,1.8908386,0.19813538,-1.1249237,9.036224,-6.9879456,2.6791382
1494169065015,1.6330566,-0.03515625,-0.4079895,5.765732,-4.332779,2.9688416
1494169065114,1.3432922,-0.19387817,0.8000183,5.571808,-3.0829926,2.219452
1494169065215,1.2697906,-0.3728485,1.1068115,6.7593384,-4.404602,2.317627
1494169065315,0.909729,-0.87991333,1.4636688,7.532654,-2.4676971,0.62013245
1494169065414,0.28868103,-1.8556976,1.2580719,13.72406,-4.670349,-2.243332
1494169065515,-0.4772339,-1.1856384,-0.6913605,12.701736,-6.4779816,-3.6415558
1494169065615,-0.1533966,-0.061782837,-1.8450317,7.9229126,-3.3320007,1.0774231
1494169065714,-0.043670654,0.27696228,-0.8585968,5.2078857,-8.1970215,3.1699524
1494169065815,1.0088043,-0.03727722,-1.3976288,11.262833,-2.4653015,0.033554077
1494169065914,1.2612762,0.1491394,-0.5294342,7.118469,2.098053,0.7733612
1494169066015,1.0780487,0.21199036,0.62957764,7.1017,-1.866745,2.432541
1494169066114,0.83303833,0.21305847,1.5318451,7.9372864,-0.25065613,1.5227509
1494169066215,0.5262451,-0.89375305,2.163559,9.55336,-2.3336182,-0.13165283
1494169066315,-0.49108887,0.23329163,0.8000183,12.407257,-8.589661,-0.75413513
1494169066414,-0.28549194,0.5070648,-1.1408997,9.476746,-8.32869,3.1029205
1494169066515,0.48895264,-0.07989502,-0.46551514,6.972412,-5.6208496,1.7094879
1494169066614,1.0652618,0.46125793,-0.9267731,8.373032,-3.3822784,1.8938446
1494169066715,1.0077362,1.0769806,0.007461548,5.4832306,-1.25383,3.6152802
1494169066814,0.302536,1.2346344,1.6990967,2.4521637,-2.1013794,3.9959564
1494169066914,-0.10972595,-0.36431885,2.899643,5.1049347,-7.270462,5.425293
1494169067015,-0.5390167,1.7097473,1.9377136,2.9262085,-6.6623383,4.192276
1494169067114,-0.61997986,0.11824036,2.1688843,5.5119476,-8.417282,3.1747437
1494169067215,-0.43356323,-0.46232605,1.3305206,4.424988,-8.922455,1.649643
1494169067314,-0.41119385,0.2237091,0.59654236,2.9573364,-10.7157135,1.0582733
1494169067414,-0.20452881,0.9065399,-0.35473633,0.01965332,-12.690933,3.8570862
1494169067515,-0.41651917,0.23754883,-2.0271912,9.012283,-10.306305,-0.5697937
1494169067614,-0.8735199,-0.07775879,-4.009659,10.963547,-10.34462,-3.2943878
1494169067715,-1.3230591,-0.2790985,-2.515091,1.970932,-7.3231354,1.6640015
1494169067814,-0.81599426,0.65834045,-1.6724701,6.536667,-13.018936,5.2098083
1494169067915,0.780838,0.3217163,-0.8181305,3.768982,-5.6639557,5.497116
1494169068014,0.6242523,0.6924286,1.6948395,2.7490387,-2.2138977,1.9010315
1494169068115,-0.43782043,0.78616333,3.51857,4.003601,-5.146805,2.15242
1494169068214,-1.6959076,0.7020111,2.135849,19.00328,-13.016541,-2.0230713
1494169068315,-0.30467224,-0.50387573,-1.7725983,13.185364,-8.012665,-1.5561981
1494169068414,-0.6977539,-0.1257019,-3.1052399,7.1591644,-8.168289,-0.59851074
1494169068515,-1.1355743,0.03727722,-1.212265,2.6053925,-9.032593,3.9576416
1494169068615,-0.16830444,0.7382355,-0.8958893,8.238953,-10.964706,2.3439484
1494169068714,0.92144775,0.6764374,0.33343506,3.876709,-7.8330994,3.5745697
1494169068814,0.9001465,0.5997467,2.4639587,2.433014,-3.9449158,2.0829926
1494169068915,0.0021362305,-0.38136292,3.980896,5.595749,-6.2481384,0.1556549
1494169069014,-0.74993896,0.4974823,2.0825958,9.206207,-11.788315,-0.36628723
1494169069115,-0.5624542,0.3717804,-1.6096191,8.222183,-9.336655,-1.70224
1494169069215,-1.2058868,0.38243103,-2.6983185,6.8790436,-13.425949,1.08461
1494169069314,-1.0215912,1.5073547,-2.4671478,-0.10723877,-9.686203,1.9991913
1494169069415,-0.14381409,-0.1800232,-1.2548828,3.7187042,-13.806625,1.5610504
1494169069514,0.7989502,0.061782837,-0.6018677,4.477661,-7.2010193,2.2098846
1494169069616,0.9470215,-0.2471466,1.6000214,2.1241608,-5.50354,2.15242
1494169069715,-0.047943115,-0.057525635,2.9497223,5.4161835,-4.775696,-0.045455933
1494169069814,-0.43037415,-0.46871948,2.5438538,11.15509,-8.235321,-2.9615936
1494169069915,-0.71372986,0.7531433,-1.1654053,11.5477295,-10.105194,-3.5433807
1494169070014,-0.81599426,0.76272583,-3.0796814,10.800751,-12.525726,-1.3838196
1494169070115,-1.3784485,1.1376953,-2.356369,4.07782,-7.30159,-1.1396027
1494169070214,-1.2527466,0.8170624,-0.9555359,5.4089966,-9.269623,-1.3718414
1494169070315,-0.8287811,0.7978821,-0.024505615,4.1783905,-9.559311,0.60575867
1494169070414,1.4604797,-0.09480286,-1.7736664,9.598862,-9.9687195,0.63209534
1494169070515,1.5329132,-0.29934692,0.46658325,3.8192596,-0.7654114,-0.7110443
1494169070614,1.1813812,-0.269516,2.7302704,5.842346,-5.5490265,0.5099945
1494169070715,0.32383728,-0.13316345,3.4685059,8.164734,-6.4540405,-1.1348267
1494169070815,-0.018112183,-1.940918,2.1230774,12.704132,-8.161102,-3.2010193
1494169070914,-0.71585083,0.2822876,-1.06633,13.530136,-8.187439,-3.9168854
1494169071015,-0.17150879,0.21838379,-3.2149658,10.080093,-9.956757,-2.200241
1494169071114,-0.700943,0.31958008,-1.5073547,4.726654,-9.597626,0.14367676
1494169071215,-0.26312256,1.4317169,-0.38668823,1.702774,-7.744507,1.6592102
1494169071314,1.1920319,-0.67004395,-0.48362732,6.883835,-13.03569,3.2417755
1494169071415,1.5606079,0.07670593,-0.6817627,9.1080475,-1.732666,1.2258606
1494169071514,1.0855103,-0.20878601,1.3710022,5.5789948,-0.5523224,0.84039307
1494169071615,0.40693665,-1.036499,2.5172272,6.917343,-4.6990814,0.16523743
1494169071714,0.2982788,-0.651947,2.2082977,10.115997,-8.7907715,0.2753601
1494169071815,-0.478302,0.21199036,0.5954895,10.297958,-8.453201,-0.48599243
1494169071915,-1.2005463,1.0333099,-0.53263855,9.701813,-11.55368,1.3958588
1494169072014,-1.0759125,1.7118835,-1.3571472,3.876709,-8.539383,-1.9273071
1494169072115,-1.4466248,2.0495758,-0.98857117,5.631668,-8.941605,-2.1379852
1494169072214,-1.594696,1.5840454,-0.38882446,4.266968,-9.049347,-3.998291
1494169072315,-1.4253235,0.98643494,-0.56884766,4.537506,-11.161041,0.11016846
1494169072414,-0.7307739,0.2790985,-0.47937012,4.1472626,-8.685425,4.441269
1494169072515,1.3475647,0.031951904,-1.3049469,9.98671,-3.8683014,3.6128845
1494169072614,1.4689941,0.95980835,-0.004257202,2.2941437,-2.158844,4.7309723
1494169072714,0.76272583,0.23649597,2.5193481,5.7178497,-4.3303833,1.3599396
1494169072815,0.32704163,0.33876038,2.5086975,9.409714,-8.539383,-0.78526306
1494169072914,-0.17790222,0.39733887,1.1153259,5.976425,-11.620728,2.7868805
1494169073015,-0.34513855,0.7542114,-1.3134766,7.659546,-8.218567,-0.10292053
1494169073114,-0.9619293,0.31958008,-0.81385803,5.1983185,-10.548126,-0.32318115
1494169073215,-1.1153259,0.98324585,-1.577652,5.8231964,-9.734085,0.5674591
1494169073314,-1.0578003,0.13635254,-1.7321167,6.342743,-7.787613,3.021515
1494169073415,-1.239975,0.39627075,-1.195221,5.1623993,-6.889786,3.9408875
1494169073514,-0.9289093,0.8010864,-0.478302,6.2780914,-6.3199615,5.401352
1494169073615,1.2453003,0.18855286,-0.96513367,10.570908,-9.774796,4.1180573
1494169073714,1.9238739,-0.13102722,-0.18534851,3.3954773,-1.9912415,1.0989685
1494169073814,1.2633972,-0.6412964,2.0261383,3.8479767,-3.1213074,3.4859924
1494169073916,0.64767456,-1.2080078,2.515091,10.415283,-7.186661,-0.5673981
1494169074014,-0.57844543,-0.18534851,1.0482178,10.604416,-9.925629,-5.5305786
1494169074115,-0.79255676,-0.72224426,-1.5318451,11.416061,-8.970337,0.050308228
1494169074214,-0.7701874,-0.5773773,-1.1334381,4.6644135,-6.2768707,3.234604
1494169074315,0.8511505,-0.15553284,-1.003479,6.2589417,-12.271942,2.2266388
1494169074414,1.5765839,0.3771057,-0.7233124,6.481598,-6.322357,2.6959076
1494169074515,1.9068298,0.3014679,0.58802795,3.852768,-1.9888458,-0.29684448
1494169074614,1.6628723,-0.22477722,1.5030823,5.674759,-6.4707947,1.0462952
1494169074714,1.2985535,-0.6402283,1.7725983,6.2421875,-6.044632,0.2753601
1494169074815,-0.007461548,-1.6277313,2.2583618,9.285217,-7.584091,-3.3087616
1494169074914,-0.37071228,-0.35473633,-0.9022827,12.6658325,-11.35257,-0.46923828
1494169075015,0.2972107,-0.49534607,-1.7651367,4.843979,-6.3271484,2.942505
1494169075114,0.07350159,-0.21624756,-1.3017578,4.805664,-8.223343,2.3679047
1494169075215,1.6362457,-0.58377075,-1.1174622,5.75856,-8.264053,2.214676
1494169075315,1.831192,-0.003189087,-1.355011,8.770462,-2.9321594,2.8634949
1494169075414,2.0133514,0.6018677,-0.3952179,5.0211487,-1.1101837,3.0239105
1494169075515,1.7491608,0.605072,0.83729553,6.026703,-3.767746,3.8451233
1494169075614,0.7062683,-0.41651917,1.9781952,6.9508667,-3.6935272,3.8594818
1494169075715,-0.47616577,0.3057251,1.1249237,12.526962,-4.9600525,0.8811035
1494169075814,-0.6796417,-0.923584,-0.8458252,13.161423,-8.62558,-0.5673981
1494169075915,-1.9345245,-1.1909637,-1.3752594,15.593933,-7.131592,2.9329224
1494169076014,-0.13635254,0.22477722,-1.6650085,4.939743,-2.0391235,1.4892273
1494169076115,0.7073364,0.56777954,-1.481781,4.556671,-1.4932556,5.6838684
1494169076215,0.81599426,1.2719269,0.8021393,3.6995392,-1.1867981,3.1029205
1494169076314,0.38989258,1.7715302,2.565155,4.4585114,-1.3831177,3.8834229
1494169076415,-0.09587097,-0.007461548,4.3580017,8.432877,-6.0182953,0.74702454
1494169076514,-0.4537964,0.22157288,3.6602478,11.018616,-13.536087,-1.1348267
1494169076615,-0.0010681152,-0.54008484,-0.76272583,9.37619,-13.708466,-0.7948456
1494169076714,-0.26631165,-0.9981537,-3.2980652,10.721741,-9.513824,0.76856995
1494169076815,-1.0940247,-0.5571289,-3.5558472,8.588501,-7.1627197,3.6918945
1494169076914,-1.3464966,-0.5464783,-0.605072,-1.8430328,-1.0958099,3.8786316
1494169077016,-0.10652161,0.52731323,-0.7744446,10.867783,-12.95668,9.789917
1494169077114,0.47937012,0.6008148,-0.3526001,0.8504486,-6.595291,8.908859
1494169077216,-0.36431885,0.67004395,3.0285492,1.2837982,-2.9249878,1.7118835
1494169077315,-1.3560791,-0.34194946,3.9414825,7.889389,-8.647125,1.2905121
1494169077414,-0.42503357,0.94169617,1.0610046,13.295502,-16.239136,0.74702454
1494169077514,-0.41012573,1.3006897,-2.4937897,10.422455,-8.699799,-3.2919922
1494169077615,-0.61891174,0.4697876,-3.3577118,7.448868,-5.9249115,-1.0246887
1494169077714,-0.42503357,-0.558197,-1.5883026,3.5941925,-8.237717,2.0997467
1494169077815,-0.28549194,0.49215698,-0.9299774,5.9812164,-13.356522,3.9097595
1494169077915,0.35580444,0.714798,-0.25672913,6.94368,-3.348755,0.8787079
1494169078014,0.42823792,0.57310486,1.9355927,1.9852905,-2.8148499,1.7980804
1494169078115,-0.41651917,-0.54008484,4.059723,3.9389648,-6.054199,2.1452332
1494169078215,-0.8500824,0.12037659,3.123352,10.18544,-11.800293,-0.9384918
1494169078314,-0.47616577,0.7563324,-0.5059967,9.546188,-11.218491,-1.271286
1494169078415,-0.040481567,-0.10758972,-2.2232056,5.576599,-11.117935,1.673584
1494169078514,-0.36431885,0.26205444,-2.0218658,3.9844513,-9.185822,-0.52189636
1494169078615,-1.0961609,1.3134766,-1.6447754,3.7593994,-10.833023,-0.81399536
1494169078714,-1.3422394,1.3294525,-0.83729553,1.7267151,-11.003021,2.15242
1494169078815,0.16937256,0.35899353,-0.9193268,5.164795,-11.163437,1.3479614
1494169078915,0.5155945,-0.51771545,0.4697876,4.2765503,-3.0782166,0.5530853
1494169079014,-0.09480286,-0.2929535,2.3702087,2.1552887,-4.7541504,1.9058228
1494169079115,-0.3536682,-1.4231873,3.4503937,5.9405212,-9.092453,-2.2217865
1494169079215,-0.5336914,-1.5393066,1.6990967,9.670685,-12.295883,-2.1547546
1494169079314,-0.605072,-0.03727722,-1.753418,8.497528,-9.951965,-1.9296875
1494169079415,-0.747818,1.4626007,-2.7888641,6.7832794,-8.568115,-3.3805847
1494169079515,-0.6689911,2.2232056,-2.0485077,5.260559,-7.5936737,-1.7070312
1494169079614,-0.81918335,1.272995,-1.0205231,5.5502625,-7.550583,-3.1698914
1494169079714,-1.0855103,0.7787018,-0.1257019,4.3603363,-7.4500275,-1.1946716
1494169079815,-0.05859375,-0.22903442,-0.9054718,7.738556,-10.947952,0.06706238
1494169079915,0.572052,0.04473877,-1.2335815,6.936508,-6.044632,0.1963501
1494169080014,0.46658325,-0.28123474,0.63383484,4.575821,-2.2809448,0.737442
1494169080115,0.1299591,-0.6998749,2.6375885,4.525543,-4.5769806,-0.3926239
1494169080214,-0.08308411,-1.1270447,2.8431854,10.1519165,-7.06456,-3.7397156
1494169080315,-0.12463379,-0.16085815,-0.874588,14.945114,-6.7581024,-2.4516296
1494169080414,-0.38775635,0.46658325,-2.1518402,8.590897,-6.2840424,-1.6759033
1494169080515,-0.621048,0.7510071,-1.3582153,5.705887,-7.598465,-0.7014618
1494169080614,-0.13955688,0.5709839,-0.30786133,4.1592255,-8.189835,-0.94807434
1494169080714,-0.22903442,-0.15232849,-0.4740448,10.781586,-9.212158,-5.0804596
1494169080815,0.21305847,-0.046875,-1.4476929,8.581314,-5.26651,-1.666336
1494169080914,0.9608612,0.041549683,-0.28762817,5.291687,-3.6743622,0.9792633
1494169081014,1.2495575,0.22264099,1.6447754,5.703491,-3.88266,0.77575684
1494169081115,0.68496704,0.35792542,3.010437,5.9261475,-4.3160095,-1.6759033
1494169081214,0.06604004,-1.0130615,2.2913818,15.524506,-6.9448395,-7.5871887
1494169081315,-0.26737976,-0.29614258,-1.718277,12.30191,-8.7907715,-2.8921661
1494169081415,-0.6966858,-0.23222351,-1.864212,5.3180237,-7.4428406,0.37831116
1494169081514,-0.32809448,0.2972107,-0.96513367,4.362732,-9.793945,1.7908936
1494169081615,0.8266449,0.24287415,-0.50813293,4.367523,-9.188217,-0.75175476
1494169081714,1.4519501,0.16085815,-0.74142456,10.092056,-4.677536,1.3120575
1494169081815,1.9664764,0.09907532,-0.23010254,6.0410767,-5.436493,1.0151672
1494169081914,1.7449036,0.33769226,0.7052002,4.39386,-5.520294,2.097351
1494169082015,-0.42930603,1.29216,1.8983002,5.394638,-4.701477,0.82603455
1494169082114,-2.0549011,1.6724701,1.5265198,12.06488,-11.311874,-0.6894989
1494169082214,1.177124,-0.6274414,-0.6274414,5.4544983,-7.6271973,6.433258
1494169082315,1.2048187,-0.69029236,1.2357025,4.872696,-3.7533722,2.219452
1494169082415,1.3070831,-1.2282562,2.1891174,5.3611145,-6.8371124,2.31044
1494169082514,0.54115295,-1.4934998,2.6482544,5.624481,-7.2967987,2.2793121
1494169082615,-0.6444855,-1.4317169,1.814148,8.001923,-11.278351,0.3232422
1494169082714,-0.8820343,-1.4008179,-1.5105438,9.653915,-11.924789,-2.880188
1494169082815,0.8724518,-2.483139,-3.1350708,6.584549,-8.441223,2.6216888
1494169082914,0.6455536,-1.2165375,-1.4476929,6.603714,-5.2377777,4.0821533
1494169083015,0.9107971,0.18748474,-1.321991,4.290909,-0.49726868,5.157135
1494169083114,0.7744446,0.68070984,0.4697876,4.3483734,-3.6959076,5.25531
1494169083215,0.7115936,0.79148865,1.5211945,5.6412354,-5.685501,3.5171204
1494169083314,0.03727722,0.16297913,2.6940613,6.531891,-8.637543,-0.16278076
1494169083415,-1.1494141,0.28974915,-1.0492859,12.2229,-12.822617,-2.9544067
1494169083515,-1.0120087,-0.54541016,-2.9529114,11.820679,-7.6128235,-1.4173279
1494169083614,-1.1685944,-1.1227875,-1.7853851,5.674759,-6.760498,6.3829803
1494169083715,0.12463379,-0.20773315,-1.4445038,7.264511,-6.5881042,3.5626068
1494169083814,0.42930603,0.12037659,-0.6828308,7.0921326,-1.7015381,-1.9273071
1494169083915,0.8234558,1.0514221,0.8000183,4.0874023,-2.5059967,2.7318115
1494169084014,0.02557373,1.3486176,2.7441254,4.702713,-3.7940826,1.192337
1494169084115,-0.057525635,-0.83943176,3.1244202,13.455917,-6.7030334,-3.32312
1494169084214,0.7190552,-1.3763275,-1.4998932,15.48381,-8.642334,-1.8554688
1494169084315,-0.29934692,-1.0919037,-2.1901855,7.0921326,-4.7709045,-0.7733002
1494169084415,-1.4796448,0.13742065,-1.1611328,6.165573,-6.65036,1.3910675
1494169084515,-0.39733887,0.2790985,-1.0982819,10.501465,-8.809937,-1.9368744
1494169084614,-1.0141296,1.4998932,-1.4381104,6.7928467,-2.570633,0.5291443
1494169084715,-2.0218658,1.6692657,1.0215912,3.2111206,-2.3024902,1.5275269
1494169084814,-2.103897,-0.57844543,2.5065613,22.999207,-9.465942,0.42381287
1494169084915,0.17364502,-1.4263916,0.76698303,13.709702,-4.3710785,-0.46444702
1494169085014,1.3752594,-1.9664764,0.07775879,11.143112,-1.7039337,-0.8882141
1494169085114,-0.2748413,-0.0745697,-0.15660095,8.981155,-4.4069977,-0.31600952
1494169085215,-0.48150635,1.7566223,-0.8596649,9.009888,-12.305466,1.0894012
