timestamp,gyro-alpha,gyro-beta,gyro-gamma,accel-x,accel-y,accel-z
1494351207519,0.8431277,-3.1305788,-0.7216155,19.582174,-7.0856395,10.755951
1494351207618,1.4347068,-2.6839633,-0.9092154,6.970718,-0.36092588,5.837662
1494351207718,0.6907029,-0.24090111,-0.14389311,4.091092,-0.3920505,4.8332944
1494351207818,0.06394868,-2.105175,1.7097214,4.361038,-0.6769605,5.056554
1494351207919,0.34961215,-2.5613837,1.041397,18.277933,-2.602497,10.140042
1494351208018,0.46579617,0.8228755,0.13111126,9.291298,-0.3956418,5.166687
1494351208119,-0.36881012,0.45833477,-1.484806,12.657545,-3.6894646,3.3859997
1494351208218,-0.34962377,0.08526686,-0.9816971,6.238691,-1.8154033,3.738546
1494351208318,-0.19186933,0.37412798,-0.1417613,7.106589,-2.7395651,5.3677998
1494351208419,-0.019192168,1.3036002,-0.31337252,9.617508,-3.4949358,3.6643255
1494351208518,0.27499855,1.3110615,-0.9795653,6.3937154,-2.405574,6.007052
1494351208619,-0.03837852,0.23769175,-0.024511369,4.768651,-1.1935095,5.4857144
1494351208718,0.03410325,-0.4423578,1.8131148,4.6477437,-1.319205,5.378574
1494351208818,-0.06502623,-0.24196704,2.600821,6.6002154,-3.4769793,5.896919
1494351208919,-0.3187124,-1.1256052,3.052766,9.035717,-4.736928,5.020641
1494351209019,-0.04583988,-1.3089414,2.5741735,7.349002,-6.0992284,3.5511994
1494351209118,1.3526319,-1.1426595,-0.7706472,11.003751,-8.812457,11.261725
1494351209219,0.42422572,-0.9774438,-0.93479717,8.351574,-5.634155,7.8338275
1494351209319,0.5468052,-0.107662566,-2.0838463,7.319673,-4.4442368,5.461174
1494351209418,0.3208326,-0.12151937,-1.890917,7.465121,-3.2213984,5.6736593
1494351209519,-0.23237385,0.31123945,-1.3910058,5.583278,-2.2134395,4.392761
1494351209618,-0.14496936,-1.2673708,-0.9614448,9.154828,-2.944868,2.6755202
1494351209719,-0.11086029,0.63420975,-1.1042767,7.7039423,-2.4193406,4.8291044
1494351209818,-0.19186933,0.8687095,-0.72481316,3.9875429,-0.97204584,4.833893
1494351209919,-0.27181247,0.043696422,0.82395166,3.1920693,-0.5853823,4.6357727
1494351210018,-0.22384658,-0.9412029,2.3482008,6.744466,-1.7597382,6.2195373
1494351210119,-0.39865556,-0.61929864,3.0538323,8.360552,-4.268263,6.685808
1494351210219,-0.38586468,-0.86445755,2.4590552,9.8838625,-4.6477437,1.9818003
1494351210318,-0.9422688,-0.95719165,0.48286107,11.735179,-7.256825,4.6698904
1494351210419,-0.11832166,0.27286673,-1.2076697,5.0787,-3.847482,5.192425
1494351210518,0.16307816,0.9028186,-2.3599167,5.93343,-3.4943373,4.368221
1494351210619,0.3069758,0.33788714,-2.5741642,7.3214684,-4.357447,4.638167
1494351210719,0.3346894,-0.3133829,-1.6489557,5.954978,-2.1266496,4.7656584
1494351210818,-0.35495332,-1.1565163,-0.62248594,6.7025676,-1.3706805,4.5202527
1494351210919,-0.68218714,0.68643916,0.25688848,12.533646,2.1547813,0.34356794
1494351211018,-0.67472583,1.225789,-1.2897446,10.223241,-1.395221,4.128202
1494351211119,-0.5638714,0.85485274,-0.925204,5.6197896,-2.9412766,4.214393
1494351211218,-0.9220165,0.13323273,0.08207948,4.7070003,-0.7817068,3.824737
1494351211319,-0.89217114,-0.68645084,1.4858807,6.597821,-0.5368997,5.5018754
1494351211419,-0.5276305,-0.18227614,1.6638875,7.9421654,-2.7635071,5.4893055
1494351211518,-0.34749195,-0.50844413,1.6425693,8.491634,-3.7175965,4.9380407
1494351211619,-0.48179644,-1.476289,1.915442,9.75697,-3.284246,4.242525
1494351211719,0.5990347,0.6875051,-0.22490215,8.886079,-6.6157775,5.620987
1494351211818,0.13110091,0.16520998,-1.0339266,10.612897,-6.2440777,4.9733553
1494351211919,0.3432167,-0.031983074,-1.6095171,8.186973,-4.5005007,5.01286
1494351212018,0.42955527,0.07673959,-1.6883943,6.388927,-1.6992846,4.8931494
1494351212118,0.07247596,-0.1748148,-1.1724946,6.546944,-1.1563994,4.211999
1494351212219,-0.2632852,-0.3187124,-0.80369043,7.693767,-1.6142905,4.7692494
1494351212319,-0.21958295,-1.2588437,-0.31017482,7.851784,-0.3429694,2.0482395
1494351212419,-0.615035,1.0222003,-0.8921608,11.665748,-2.1535842,3.9079356
1494351212519,-0.20252843,0.6768461,-0.9614448,6.391321,-3.0412345,3.9019501
1494351212618,-0.12258529,0.17906679,-0.50310427,5.947197,-1.2755109,4.9021277
1494351212720,-0.3293715,-0.23663749,0.42317015,6.2841806,0.61890113,4.6519337
1494351212819,-0.39119416,-0.33363518,1.169306,7.013215,0.078410104,5.0421886
1494351212919,-0.25795564,-0.3560192,1.5583626,7.299322,0.2885013,4.7854104
1494351213018,-0.17374888,-0.53402597,1.2151401,10.0987425,-0.29508534,4.930858
1494351213119,-0.14070572,-0.5457509,0.75360173,10.971429,-2.9538462,6.0962358
1494351213219,0.9038845,0.5489371,-1.1234628,3.9540238,-1.6142905,2.4570494
1494351213318,0.40503937,0.25581223,-1.1469128,10.866084,-3.6978443,4.450821
1494351213419,0.057553235,-0.102333024,-0.9284017,7.478887,0.82839376,3.7379472
1494351213518,-0.800503,-0.72695535,-0.55533373,7.551312,1.0672153,3.409343
1494351213618,-0.8303485,-0.2750102,-0.79516315,11.022904,-0.2292448,1.9818003
1494351213719,-0.8186235,0.9347959,-1.5668808,9.046491,-2.9029694,4.10426
1494351213819,-0.74933946,0.4487416,-1.3803469,6.9479733,-1.413776,4.692635
1494351213919,-1.2172732,-0.030917166,-0.2163749,4.8297033,-0.48602292,4.3335047
1494351214018,-1.1884936,-0.6406168,1.2300627,6.54874,-1.9500772,4.847061
1494351214119,-1.2034165,-0.74187803,1.391015,10.193314,0.50757074,4.1539397
1494351214219,-0.7290872,-0.24303293,0.61290187,11.151592,-1.4215572,4.975151
1494351214319,-0.18334207,1.0072776,-0.6779132,6.540959,-2.0350714,4.30238
1494351214418,-0.77385527,0.45833477,-1.3974015,11.469422,-2.8018143,5.301361
1494351214519,-0.96998245,0.36773258,-1.6777353,8.802282,-1.9399018,4.420893
1494351214618,-0.09273984,0.49031204,-1.0019494,7.606977,-3.4428618,6.13993
1494351214719,-0.34536013,0.9646413,-0.3112407,5.736507,-1.918354,4.405331
1494351214818,-0.37733737,0.59157336,0.08740902,5.0433855,-1.9027917,6.4164605
1494351214919,-0.66833043,0.74080056,0.68325174,4.993706,-1.2671312,4.856638
1494351215019,-1.32493,-0.13431028,1.2375242,2.0937293,-3.3087866,4.288614
1494351215118,-0.8037008,0.28778943,0.56173825,9.685742,-5.4498014,7.9086466
1494351215218,-0.44342375,0.6512642,-0.33575663,6.597821,-3.7612908,5.616797
1494351215319,-0.7568008,-0.26754886,0.4796633,4.3556514,-5.697003,5.3636103
1494351215418,-0.789844,0.909214,1.029672,6.970718,-7.03177,5.4509983
1494351215518,-0.2909988,0.28139398,-0.66618824,13.584102,-14.179659,11.458051
1494351215619,-0.27927384,0.5052348,-1.4528286,4.2856207,-6.165069,4.119224
1494351215718,0.11191456,1.0605731,-2.2341394,2.979584,-3.3393128,6.740875
1494351215819,0.5638598,-0.137508,-1.9154329,9.32721,-6.3296704,7.4932523
1494351215918,0.07460777,0.4476757,-0.2941862,0.9690531,-2.866458,6.616376
1494351216018,-0.3560192,0.40077573,1.3782241,0.93014735,-3.5392284,6.965331
1494351216119,-0.89323705,-0.09593757,2.6040187,6.9527617,-6.388927,5.825691
1494351216219,-1.2044823,-1.0243437,2.4889007,4.065953,-7.629123,6.4996586
1494351216318,0.07887141,1.307864,-0.16201355,8.401254,-11.051635,5.486313
1494351216418,0.88576406,-0.70670307,-1.5860672,5.704784,-7.169437,6.2033763
1494351216518,1.0573753,0.30164623,-1.4240491,5.608417,-4.546589,5.885546
1494351216619,0.81221634,0.033037342,-0.9188085,2.464232,-3.9031472,6.9324107
1494351216718,0.4967075,0.23982356,0.22277938,0.9217676,-0.5117606,6.670844
1494351216819,-0.61183727,-0.33576697,1.937826,2.1242554,-2.955642,5.242703
1494351216919,-1.3387867,-0.45301688,2.032692,7.0581064,-9.269152,6.2602386
1494351217018,0.7098892,0.18759406,-1.2716242,12.178106,-7.754819,4.060566
1494351217118,0.55639833,-0.7621303,-2.5134075,7.930793,-6.430227,7.8463974
1494351217218,0.96037763,0.43914843,-1.7800626,2.8407202,-2.8927941,6.986879
1494351217319,0.5414756,0.09699185,-0.31976798,2.1625626,-2.038064,6.839037
1494351217418,-0.28460336,0.3954462,0.7631949,1.6998831,0.6476315,6.9401917
1494351217518,-1.3377209,-0.053301238,2.180853,2.9041665,-3.9971197,4.6908393
1494351217618,-1.4624321,0.20145085,2.169128,8.995614,-11.225214,4.104859
1494351217719,0.3442826,0.269669,-1.27269,5.9902925,-7.2460513,6.532579
1494351217819,0.10871684,-0.6224963,-1.5444968,7.535151,-6.612785,5.9687448
1494351217918,0.16520998,-0.29952607,-2.0252213,6.333262,-5.7514706,4.9655743
1494351218018,-0.12365119,-0.29632834,-2.436662,6.4278326,-3.8612487,4.8692074
1494351218119,-0.039444424,0.64593464,-1.53064,2.6300304,-2.1853075,9.530718
1494351218218,-0.18547389,0.8868299,-0.78343815,3.985747,-1.2348095,4.735132
1494351218319,-0.82715076,0.7887664,0.17587942,4.4711714,-0.48961422,5.1475334
1494351218419,-1.7331729,0.92413676,1.5050672,2.2601264,-2.0027497,5.224746
1494351218519,-2.7820265,0.17373724,2.2799826,1.513734,-4.155137,5.4390273
1494351218619,-1.9580797,0.11298047,2.0593395,4.9583917,-9.028534,8.277353
1494351218718,-1.1128142,2.1008997,-0.45087475,8.330625,-12.927491,5.212775
1494351218819,-0.67366,2.1008997,-1.8408192,4.8937483,-8.948927,3.2638953
1494351218919,-0.23663749,0.7130869,-3.0133185,7.2095394,-5.624578,2.1607668
1494351219018,-0.32617378,-1.1447914,-3.2446206,6.728904,-5.92924,4.231153
1494351219119,-0.15882617,0.22916448,-2.426003,7.529764,-4.2191815,3.1920693
1494351219218,-0.4018533,0.665121,-1.7694035,7.934983,-3.201646,3.195062
1494351219319,-0.18547389,0.8644459,-1.1128039,7.502829,-0.6793547,5.250484
1494351219418,0.28992128,0.75892097,-0.4444793,5.425261,-1.2318168,4.984129
1494351219519,0.1918577,-0.5702668,-0.83140403,7.750629,-0.796072,3.6068647
1494351219619,0.59263927,0.49350977,-0.81115174,8.284536,-1.8201917,6.0896516
1494351219718,0.35600758,0.5798484,-0.039434087,4.8093524,-0.3417723,6.3320646
1494351219819,-0.7099008,0.2025168,0.82501763,3.6858733,1.602918,4.7267523
1494351219918,-0.9614552,0.07247596,1.4443103,6.077082,-0.8409633,6.019023
1494351220019,-0.97957563,-0.34642604,1.3633015,6.456563,-1.4754268,7.0192003
1494351220119,-1.172505,-0.8815121,1.3227968,8.215104,-2.090138,4.9332523
1494351220218,-1.5477048,1.1660979,-1.3803469,18.581398,-11.555016,7.0497265
1494351220319,-1.2066143,-1.0552552,-1.5359694,10.061033,-1.9865888,4.932654
1494351220418,-0.48925778,0.56918925,-2.229876,9.196128,-5.996278,4.768651
1494351220519,-0.07888304,-0.0735535,-1.6756036,7.8368206,-1.8806454,4.477157
1494351220619,0.15028726,0.09272821,-0.5947724,6.396708,-1.9345149,5.060744
1494351220718,0.757855,-0.12045347,-0.5457406,11.378443,-0.85832125,4.019266
1494351220819,0.30271217,1.1160004,-0.86124945,6.0962358,-2.4672248,5.9872994
1494351220918,0.18226452,0.4551371,-0.24835214,3.4021604,-1.0366893,5.971139
1494351221019,-0.10446485,-0.5521464,1.0520562,5.1678843,0.27174187,4.754286
1494351221119,-0.41464418,0.0074555404,2.4100235,4.821922,-1.1522095,5.086481
1494351221218,-0.6224963,-0.50737816,3.322441,6.001066,-5.9729342,6.864176
1494351221319,-0.7951735,-1.5327821,2.415353,8.201338,-6.675034,4.8536453
1494351221418,-0.8569962,-0.16415572,0.42849973,10.232818,-7.7398553,5.0278234
1494351221519,-0.23876931,0.4199621,-1.1884834,6.371569,-6.276998,4.67827
1494351221618,0.17267133,1.0808252,-2.4068167,8.129512,-5.379771,4.4059296
1494351221719,-0.28460336,0.5745188,-2.5997462,9.46368,-5.7257333,3.770269
1494351221818,-0.60117817,0.102321394,-2.3471258,6.86657,-2.7629087,4.246715
1494351221919,-0.41038054,0.014916899,-1.228988,6.435614,-2.6096797,4.073734
1494351222018,-0.06502623,-0.30592152,-0.5041702,7.911041,-1.3198036,5.00448
1494351222119,-0.1364421,0.991289,-0.34961346,8.839991,-1.0133458,2.207454
1494351222218,0.34534848,0.4860484,-0.45300657,7.875726,-0.955885,5.030816
1494351222319,0.2941849,0.7344051,-0.08526815,6.266823,-0.9097966,6.1519012
1494351222418,0.28778943,-0.12791483,1.4901445,5.3019595,-1.3156137,6.142324
1494351222519,0.18652816,-0.074619405,2.1403487,5.8035445,-2.315193,4.88477
1494351222618,0.11298047,0.25261447,2.599755,6.858789,-4.2898107,5.8436475
1494351222719,-0.25902155,-0.80903023,2.4793074,6.432621,-3.7056255,3.8391023
1494351222818,-0.6651327,-0.22064885,2.2245553,7.137115,-6.3015385,3.4153285
1494351222919,-0.91029155,-0.04583988,0.42317015,9.501987,-8.527548,4.466383
1494351223018,-0.18334207,-0.043708064,-0.98276305,7.180809,-4.7638626,4.2610803
1494351223118,0.18652816,0.2547463,-2.5379233,8.008006,-4.3257236,4.1252093
1494351223218,-0.18760568,0.28032807,-3.0932617,8.09719,-4.9613843,4.35206
1494351223319,-0.8260848,-0.026653528,-2.7980049,7.501034,-3.62123,3.2794576
1494351223418,-1.0978916,-0.4551487,-1.6638784,7.48188,-2.5779567,2.2296002
1494351223519,-1.2066143,-0.48712593,-1.156506,7.138911,-0.54108953,2.7449522
1494351223618,-0.7621303,-0.06502623,-0.7599881,8.8884735,0.16819267,2.774281
1494351223719,-0.5350918,0.99768436,-0.6821768,8.574234,-0.35194764,3.9971197
1494351223818,-0.451951,1.0317935,-0.43062246,6.517017,-0.23104045,5.547365
1494351223919,-0.79837114,-0.2739443,1.1319993,6.193201,-0.6183026,6.0196214
1494351224018,-0.8889734,1.4005978,2.3258166,4.435857,-3.6284125,5.28101
1494351224118,-0.4785987,1.387807,1.7694125,5.729923,-5.61141,5.691017
1494351224219,-0.21212159,-0.324042,1.9026511,4.270657,-6.2710123,4.789002
1494351224318,-0.29313067,-0.64914405,1.3036106,5.922656,-5.0356045,6.121375
1494351224419,-0.5457509,-0.64914405,1.3856854,3.7972038,-7.1855974,7.158663
1494351224518,-0.25156018,-0.7557348,0.028784052,9.491214,-7.471106,5.433042
1494351224619,1.1160004,-0.5542782,-2.4355965,6.04895,-5.0080714,4.9559975
1494351224719,1.1607684,-0.90496206,-2.7106006,8.561665,-5.64852,4.79798
1494351224818,0.46153253,-0.6800554,-1.856808,6.2123547,-3.2770634,4.630386
1494351224919,-0.02558762,-0.20466022,-0.98382896,6.2165446,-2.9077578,5.8412533
1494351225019,0.0778055,0.30271217,-0.49244514,5.27682,-0.33219546,4.0623617
1494351225118,0.060750958,0.38905078,0.62036324,4.214393,-0.1628057,6.604405
1494351225220,-0.16415572,0.3037781,1.5040014,6.334459,-1.4053963,6.214749
1494351225321,0.26433948,-0.62036455,1.8578829,7.6099696,-3.1304185,6.2524576
1494351225418,0.49350977,0.91134584,2.078526,6.4996586,-3.4817677,6.482899
1494351225519,0.13856226,1.2343161,1.5743513,3.4566286,-4.646547,6.752247
1494351225618,-0.21638522,0.4103689,1.9527488,1.5292963,-4.10426,5.756259
1494351225718,-0.32617378,0.14389183,1.8781351,3.4680011,-5.8280854,6.2165446
1494351225819,-0.70563716,-2.2021725,1.7694125,5.550358,-8.221089,4.640561
1494351225919,0.037300978,2.3311357,-0.39224976,-0.13527238,-5.070919,4.458602
1494351226018,0.47965294,-0.34003058,-2.0571988,5.01286,-5.2935796,1.8285714
1494351226119,0.28778943,-1.6191207,-2.04121,9.664195,-6.675034,4.5256395
1494351226218,0.28459173,-0.8676552,-2.2565234,6.8234744,-3.7894225,5.600636
1494351226319,-0.27287838,-0.7504054,-2.0571988,7.4094553,-3.34051,6.348824
1494351226419,-0.5350918,0.033037342,-1.6937238,6.4266357,-1.9351134,4.9984946
1494351226519,-0.55001456,-0.2909988,-1.2396469,8.262988,-1.1492168,3.7541082
1494351226618,-0.21958295,0.040498704,-0.90495163,5.5748982,-0.13946225,5.109226
1494351226718,-0.29313067,0.17800088,0.16735215,5.3618145,-0.06524199,6.8318543
1494351226818,-0.1364421,0.2057145,1.6009989,3.6469676,-0.55485624,6.9521627
1494351226919,-0.9454666,0.3901167,2.602953,8.137891,-3.063381,4.8159366
1494351227018,-1.2375255,0.60010064,2.4473302,5.1756654,-6.67264,6.7235165
1494351227119,-0.6182328,-0.5169714,1.9932532,6.8635774,-8.3150625,5.783194
1494351227218,0.11937592,-0.14496936,0.05436585,7.950545,-8.247426,7.639299
1494351227319,0.63953924,-0.008533086,-1.8930488,7.6638393,-4.510676,3.4847605
1494351227418,-0.019192168,-0.16841935,-1.9292897,7.4052653,-4.338293,5.1660886
1494351227519,-0.2003966,0.55959606,-2.0369465,5.318719,-5.582081,5.8879404
1494351227618,0.62355053,-0.06928986,-1.6660104,3.9803603,-5.260061,6.962937
1494351227718,0.38585302,0.54040974,-0.7280109,4.174889,-2.1110873,4.0719385
1494351227819,0.029839616,0.34001896,0.58732,2.5845406,-1.7645266,6.7905545
1494351227918,-0.20892388,-0.7013735,2.0380213,3.0585926,-1.882441,5.563526
1494351228019,-0.5734645,-0.23876931,1.6617558,12.972383,-6.3230863,2.8718448
1494351228118,-0.7962394,0.5372121,-0.70882463,8.15525,-3.734356,3.140594
1494351228219,0.23449403,-0.451951,-2.9930663,9.046491,-3.1022868,4.2700586
1494351228318,-0.6246281,-0.37520558,-1.7566127,6.282385,-3.6080618,9.646238
1494351228419,0.4977734,1.4752114,-1.1010789,3.4392705,-2.1906946,4.2155905
1494351228518,0.5350802,0.26433948,-0.17054081,5.5042696,-0.45310265,6.423643
1494351228619,0.3197667,0.71202105,1.4645628,3.7912183,-0.82001406,6.525995
1494351228718,0.16414407,0.3570735,2.324751,6.604405,-0.7517793,4.9398365
1494351228818,-0.16628753,-0.3016579,2.7457848,6.9743094,-2.5498247,6.3853354
1494351228919,-0.4178419,0.051157787,2.2991688,6.0764837,-5.458181,6.2362967
1494351229019,-0.5244328,-0.71629626,2.1392827,6.5643024,-8.425196,4.0839095
1494351229118,-0.2760761,-0.27181247,0.21531802,8.714295,-7.3723454,3.912724
1494351229219,0.8974891,-1.3014799,-1.3217218,7.6009917,-6.893505,5.784391
1494351229318,0.3986439,-0.7589326,-1.494399,8.4347725,-6.3919196,5.920861
1494351229419,0.32189852,-0.497785,-1.7843262,6.5523314,-3.936666,4.662708
1494351229519,-0.011730812,-0.21212159,-1.7598102,6.234501,-2.3690624,5.1726727
1494351229618,-0.35815105,0.17906679,-1.4069945,6.319495,-4.4975076,5.93343
1494351229718,0.50310296,1.7491499,-1.1863517,6.6361284,-3.260304,3.6469676
1494351229819,0.16307816,0.20038496,-0.039434087,5.1140146,-1.2737153,5.309142
1494351229918,-0.0021376351,0.3986439,0.960388,4.7177744,-1.389834,7.902661
1494351230019,-0.13963981,0.73547095,1.6361738,4.824316,-1.2264298,6.9120603
1494351230118,-0.56493723,0.99342084,1.8845307,5.6999955,-4.8895583,6.7594295
1494351230219,-0.7631963,0.55639833,1.6063285,5.9142766,-5.888539,5.732317
1494351230318,-0.82288706,-0.7290872,1.8909261,6.122572,-8.172607,5.346851
1494351230419,-0.38586468,-0.4551487,0.27927253,8.292317,-8.213308,4.1940427
1494351230518,0.87617093,-0.41144645,-1.20234,4.9889174,-6.0178256,5.7706246
1494351230619,0.87830275,-1.151187,-1.2652289,8.131906,-6.036381,6.05733
1494351230718,0.9401254,-1.1863619,-0.99875164,6.7181296,-4.314351,4.8955436
1494351230818,1.0552435,-0.8143598,-0.7226814,6.1662664,-1.4706383,5.0356045
1494351230919,1.1618342,-0.4178419,-0.110849954,7.4543467,-1.7220294,5.8813562
1494351231018,1.2023388,-0.7365485,-0.04476363,8.51019,-2.208651,5.9280434
1494351231119,1.5711433,1.6180431,-0.46366566,7.9295955,-1.2395979,3.961805
1494351231218,0.86764365,0.15348499,0.14390217,2.2996306,-2.4498668,5.6335564
1494351231319,0.95611405,-0.37307376,1.5690216,6.432621,-0.49200842,5.4073043
1494351231418,1.3259844,0.26327357,2.2661257,5.535394,-1.4622586,6.197391
1494351231518,0.9028186,0.8111505,3.226509,4.5100775,-2.7395651,6.285378
1494351231619,0.06288278,-1.4229935,3.4844592,5.4474072,-4.257489,5.4480057
1494351231719,-0.38373283,-1.1884936,2.3002348,8.233061,-6.115988,5.024232
1494351231819,-0.106596656,-0.7440099,0.285668,9.562441,-7.237073,5.148132
1494351231919,0.76211876,-0.9838392,-2.0966372,14.698004,-7.6129627,5.238513
1494351232018,0.2664713,-1.7225138,-2.7724233,9.391854,-4.38917,6.3757586
1494351232119,-0.18334207,-0.29206473,-2.3172805,5.0200424,-2.304419,4.596867
1494351232219,-0.0010717271,0.44554392,-1.8365556,7.7284827,-2.4744074,4.2102036
1494351232320,0.99342084,-0.5137736,-0.47645652,6.633734,-2.071583,5.0900726
1494351232420,0.2515486,0.5276189,0.6875155,3.7283704,0.76554596,6.878541
1494351232518,-0.58838725,0.6565938,2.431342,4.3742065,-0.8762778,6.0447607
1494351232619,-0.20892388,0.7184164,2.895012,8.713099,-4.0713396,6.0447607
1494351232719,-0.50098276,0.26433948,2.6168096,7.6225395,-4.3101616,6.822876
1494351232820,-0.8314144,-0.29206473,2.1861827,9.072228,-9.490615,3.5649662
1494351232920,-0.36774424,1.2748207,-0.16414537,5.4073043,-8.3473835,4.514267
1494351233019,0.31763485,0.3442826,-1.0168722,0.61171854,-7.7997103,5.162497
1494351233120,0.8804345,-0.53828955,-1.7896557,5.73531,-6.7079544,5.747281
1494351233218,0.5148279,-0.87724847,-2.2511942,6.558915,-5.9358244,5.4761376
1494351233320,-0.047971696,-0.800503,-2.2490623,6.7354875,-2.9825766,5.3259015
1494351233419,-0.22917613,0.781305,-1.8994443,5.189432,-4.179079,8.363544
1494351233520,-0.4263692,0.7823709,-1.1799562,5.789778,-0.35853168,6.5295863
1494351233620,0.81648,0.05542142,-0.19612263,4.721964,-0.9570821,5.8574142
1494351233719,0.98169583,0.45620298,0.74933815,6.096834,-0.7888894,6.492476
1494351233820,0.9827617,0.6832414,1.9996487,5.0098667,0.06165069,6.9120603
1494351233919,0.28032807,0.083135046,3.531359,5.040393,-3.240552,6.9527617
1494351234019,-0.3272397,0.3197667,3.5494795,6.5654993,-5.3294926,6.403292
1494351234118,-0.6224963,0.027707798,2.3044987,8.68317,-9.378088,5.158906
1494351234219,-0.5244328,-0.28247157,0.33683157,7.251438,-7.701548,5.231929
1494351234318,0.7290755,0.513762,-1.0200698,5.016451,-4.252102,4.906916
1494351234419,0.6320779,-0.99769604,-1.8578739,8.98484,-4.9530044,6.270414
1494351234518,0.40503937,-1.7278433,-1.7491511,7.663241,-2.3104045,5.8651953
1494351234619,0.104453206,-0.789844,-1.5679469,7.483077,-0.90680385,5.4881086
1494351234718,0.10978275,0.6032983,-1.2705582,8.394071,-0.58837503,10.563217
1494351234818,0.82820493,0.5553325,0.33469978,3.0998926,-2.8419173,4.7638626
1494351234918,0.9294663,-0.15669437,1.893058,4.176685,-2.671929,6.546944
1494351235019,1.003014,0.67897785,3.090073,5.548562,-2.9119477,6.7013702
1494351235118,0.36773258,0.6171552,3.1924,7.57286,-4.329315,4.322731
1494351235219,-0.33150333,-0.5702668,2.9419115,5.177461,-6.218939,5.3097405
1494351235319,-0.45408282,-0.38053513,1.8173784,4.696825,-8.107964,4.447828
1494351235418,-0.49352142,-0.88684165,1.4880127,2.5438392,-6.9779005,3.989937
1494351235519,0.2312963,1.0072776,-0.82074493,8.048109,-13.022062,8.637082
1494351235618,0.5862438,0.5905074,-1.7214375,6.6121864,-9.260173,5.7053823
1494351235719,0.50097114,0.619287,-3.1209753,7.549516,-5.831078,4.2981906
1494351235818,0.22063722,-0.042642158,-2.9930663,7.367557,-4.8297033,4.590283
1494351235919,0.45193934,-0.591585,-2.2234802,5.1834464,-2.9532478,7.3106947
1494351236018,0.6832414,0.21850541,-1.0371243,5.9926867,-2.5073276,4.8775873
1494351236119,0.40930304,0.4476757,0.1470999,4.276044,1.3251905,6.1560907
1494351236219,0.03623507,0.0053237234,1.3611696,4.4723687,0.010773907,5.4557867
1494351236318,-0.15882617,0.57132107,2.4889007,6.808511,-2.0644004,7.4357915
1494351236419,-0.24196704,0.1929236,2.566712,8.103175,-4.2018237,6.6516905
1494351236519,-0.7376144,0.69816417,1.9804624,7.368754,-5.153519,4.0593686
1494351236618,-0.5244328,0.19612132,0.08314537,11.350311,-8.393473,6.536769
1494351236719,0.094860025,0.15774864,-1.7949853,7.313089,-5.8759694,4.1353846
1494351236819,0.20358269,-0.031983074,-2.6871505,7.2963295,-5.7496753,4.2155905
1494351236918,0.11831001,0.28672355,-2.1968327,4.466383,-3.7319617,7.914632
1494351237019,0.5148279,0.9390595,-0.95291764,2.7940333,-3.5960908,4.3736076
1494351237118,0.09699185,0.62674826,0.24942707,3.2064345,-0.49200842,7.170634
1494351237219,0.09699185,0.5350802,1.3014786,4.6495395,-0.3429694,6.886921
1494351237320,-0.9081598,-0.09487167,2.7383232,4.800973,-4.031237,4.0456023
1494351237418,-1.3622367,0.6949665,2.3418052,7.4118495,-8.564657,4.073734
