timestamp,gyro-alpha,gyro-beta,gyro-gamma,accel-x,accel-y,accel-z
1494170592863,-0.17364502,0.9800415,-0.83517456,4.7673645,-9.609589,1.0822144
1494170592963,0.39733887,1.1994934,-0.94169617,6.4672394,-10.713318,-0.3758545
1494170593062,0.7936249,0.12677002,-0.7701874,3.2781677,-7.3638306,2.7389984
1494170593163,0.5954895,-0.20452881,1.2783203,3.3260498,-5.814789,3.1436157
1494170593262,0.05432129,-1.5030823,2.582199,4.2621765,-5.886612,2.5163422
1494170593363,-0.34194946,-1.257019,2.3787384,8.538223,-7.634384,2.1021423
1494170593462,-0.6998749,0.98217773,1.3880463,8.176697,-9.892105,1.0678406
1494170593563,-0.93530273,0.651947,-1.0929565,7.4129486,-9.971115,-0.9049835
1494170593662,-1.1941681,1.4242554,-2.3009644,7.683502,-11.49144,-1.7453461
1494170593762,-0.76379395,0.6402283,-2.83786,3.8360138,-8.091675,0.3807068
1494170593863,-0.5752411,2.13266,-0.36325073,4.8894653,-8.678253,0.031158447
1494170593963,0.30360413,0.9512787,-1.6618195,5.6340637,-9.250458,1.0343323
1494170594062,0.28974915,0.6487427,-0.8916321,2.8615723,-4.3710785,2.5570374
1494170594163,-0.43569946,0.20240784,1.8951111,4.9612885,-2.673584,2.2098846
1494170594262,-0.8969574,-0.40905762,3.5835571,7.982773,-6.7700653,2.0758057
1494170594363,-1.052475,1.2239838,2.48526,7.2980347,-10.074066,-0.33755493
1494170594462,-0.9938965,0.9715271,-0.53263855,7.4009857,-10.562485,-1.211441
1494170594563,-0.8490143,1.3155975,-2.6631622,7.410553,-13.248779,0.3902893
1494170594662,-0.53796387,1.2144012,-2.5513153,1.6261597,-8.639938,-0.24177551
1494170594762,-0.30786133,2.3798065,-0.6008148,4.6021576,-11.228073,1.9991913
1494170594862,0.5347595,0.39733887,-1.6021576,5.1193085,-10.270386,1.2905121
1494170594962,0.63490295,0.1725769,-1.1259918,4.015579,-6.753311,2.6121063
1494170595063,-0.16830444,0.31851196,1.1100006,3.4290009,-3.978424,2.7892761
1494170595162,-1.0844421,-0.44102478,2.753708,5.5502625,-4.3064423,2.334381
1494170595263,-1.4466248,-0.067108154,3.3172302,7.5709686,-8.587265,-0.49557495
1494170595363,-1.16008,1.0535431,0.6775055,8.875809,-12.583191,-0.98876953
1494170595462,-0.733963,1.3784485,-2.4628906,8.045013,-12.236038,-1.381424
1494170595563,-0.5518036,0.88630676,-2.5118866,4.5063934,-7.14357,-0.37106323
1494170595662,-0.33236694,0.88523865,-0.88630676,5.069031,-10.002243,0.77815247
1494170595763,0.38775635,1.5904388,-1.355011,6.134445,-10.191391,-1.1252441
1494170595862,0.36431885,0.061782837,-1.3347778,3.9916382,-4.7541504,0.9936218
1494170595963,0.316391,-0.6093292,0.5816345,4.6332855,-3.8683014,1.7262573
1494170596062,-0.2311554,-0.51345825,2.659958,6.2302094,-5.570572,0.12213135
1494170596163,-0.58802795,-0.6562042,3.316162,7.393799,-6.293625,-0.69429016
1494170596262,-0.49108887,0.1533966,0.9800415,12.974686,-12.082809,-2.2098236
1494170596363,-0.09587097,0.28016663,-2.3766022,9.419296,-9.774796,-0.3973999
1494170596462,-0.14274597,0.70414734,-2.020813,4.5183563,-7.732544,0.7996979
1494170596562,0.08415222,1.2655334,-0.46446228,5.2174683,-9.71254,0.84039307
1494170596663,0.39627075,1.1717834,-1.3070831,7.7601166,-10.086044,-1.6088715
1494170596762,0.47190857,-0.18109131,-1.399765,5.387451,-6.140396,0.08862305
1494170596863,0.41226196,-0.44102478,0.36431885,4.896637,-4.8499146,1.4102173
1494170596962,0.13635254,0.5528717,1.767273,7.010727,-5.534668,2.4612732
1494170597062,-0.54541016,-0.4037323,2.6940613,6.864685,-3.8180237,1.6831512
1494170597163,-0.9502106,-0.6455536,2.2232056,11.562103,-7.9528046,1.2115021
1494170597262,-0.269516,0.44528198,-1.0855103,10.218948,-9.051743,-0.6248474
1494170597363,-0.08947754,0.4463501,-1.9994965,8.660324,-9.461151,0.32803345
1494170597463,0.0095825195,0.56140137,-0.93104553,2.662857,-9.104416,1.187561
1494170597562,0.018112183,0.76911926,-0.5507355,5.7394104,-9.262436,0.11495972
1494170597663,0.65834045,0.44421387,-2.037857,7.9468536,-9.315109,0.80688477
1494170597762,0.5198517,0.2002716,-0.98643494,4.975647,-4.045471,0.8356018
1494170597862,0.2034607,-0.3206482,0.95874023,5.6604004,-3.233841,1.3216248
1494170597962,-0.35580444,-0.8735199,2.661026,6.4002075,-5.0749817,1.350357
1494170598063,-0.93743896,-0.6998749,3.3641052,9.488724,-6.7940063,1.855545
1494170598162,-0.37071228,1.1227875,1.0940247,12.445557,-10.562485,0.72068787
1494170598263,0.04899597,0.7243805,-1.4114685,9.304367,-8.163498,-0.42373657
1494170598362,0.48362732,0.3952179,-2.2029724,5.3419647,-10.0477295,0.5770416
1494170598463,0.56352234,0.6263733,-1.017334,3.5582886,-9.556915,1.9225769
1494170598562,0.80641174,0.33876038,-1.3954926,7.470413,-9.238495,1.2617798
1494170598662,1.0002899,-0.05432129,-1.368866,5.9548798,-6.0111084,0.81166077
1494170598762,0.4229126,0.04473877,0.6018677,4.55188,-3.5331116,1.5466919
1494170598862,-0.6647186,-0.52731323,2.8772736,5.784897,-4.725418,0.5602722
1494170598962,-1.6479645,-0.26844788,3.3651733,9.950806,-7.071747,2.4277496
1494170599063,-0.43675232,0.02130127,0.5518036,12.445557,-10.030975,2.1548157
1494170599162,0.08522034,0.49534607,-1.8237305,8.940445,-8.103638,0.15325928
1494170599262,0.6529999,-0.08415222,-1.9984436,5.3371735,-11.093994,3.0287018
1494170599363,0.43888855,-0.23329163,-0.8490143,2.1720428,-9.542557,2.614502
1494170599462,0.5805664,0.41545105,-1.1888275,6.3523254,-11.390884,0.5075989
1494170599563,0.88949585,-0.078826904,-1.4412994,5.5382843,-5.5681763,0.5650635
1494170599662,0.80641174,-0.1768341,0.88630676,4.2980957,-2.9082184,1.436554
1494170599763,0.018112183,-0.8287811,3.4024506,5.5430756,-5.9320984,-0.0717926
1494170599862,-0.6775055,-0.6977539,3.9755707,9.778427,-8.307144,0.6177368
1494170599963,-0.2929535,-0.14274597,1.1675262,12.3737335,-9.834656,-0.22502136
1494170600062,-0.113983154,0.21305847,-2.180603,9.53421,-8.896118,-0.16755676
1494170600163,0.04473877,0.25779724,-2.690857,6.062622,-11.2256775,0.53393555
1494170600262,0.13421631,0.4537964,-1.2697906,2.1983795,-9.808319,1.2569885
1494170600363,0.2599182,0.93104553,-0.93104553,6.057831,-9.427628,-0.62246704
1494170600462,0.57844543,-0.03302002,-1.6980286,5.231827,-7.215393,0.41423035
1494170600563,0.31958008,0.03727722,0.654068,3.9748688,-3.2721405,1.8459625
1494170600662,-0.46446228,-0.7936249,3.1723633,7.1831055,-5.0462494,0.6225281
1494170600763,-0.7211914,-0.4037323,3.0051117,9.749695,-7.1651154,0.47647095
1494170600862,-0.47616577,0.44421387,0.036224365,11.830246,-9.906479,-0.16516113
1494170600963,-0.17150879,0.6370239,-2.4373322,8.715393,-8.915268,-0.028701782
1494170601062,0.17576599,0.302536,-1.9355927,3.6085663,-9.099625,1.3479614
1494170601162,0.42610168,0.51664734,-0.74142456,4.144867,-10.143494,1.3862762
1494170601263,0.714798,0.33555603,-1.3710022,6.6013184,-9.090057,0.658432
1494170601363,0.56884766,0.019180298,-0.6306305,4.7170715,-4.5051575,1.7956848
1494170601462,0.0745697,-0.29081726,1.6309204,4.7075043,-3.1835632,1.5682373
1494170601563,-0.64341736,-0.46446228,3.3918,7.714615,-4.8618927,0.56985474
1494170601662,-0.876709,-0.050064087,2.6951141,10.472733,-7.854645,-0.21305847
1494170601763,-0.41012573,0.29934692,-0.970459,11.420837,-8.60643,-0.1914978
1494170601862,-0.19494629,-0.2737732,-2.6876678,8.468796,-9.980698,-0.3136139
1494170601962,-0.30360413,0.03727722,-1.6032257,3.6468658,-7.8666077,-0.22741699
1494170602062,-0.045806885,1.0045471,-0.38456726,6.383438,-10.196167,0.16523743
1494170602163,0.14060974,0.53582764,-1.8162689,6.2230377,-8.455582,-0.3279724
1494170602262,0.28762817,0.26524353,-0.5230408,5.1049347,-3.4469147,0.8020935
1494170602363,0.23542786,0.0021362305,1.9824524,4.8655243,-1.4956512,1.2019196
1494170602462,-0.4229126,-0.47616577,3.7976685,8.720184,-4.3591156,0.20114136
1494170602563,-0.51026917,0.41970825,2.900711,9.828705,-9.482697,-0.35191345
1494170602662,-0.40693665,0.26419067,-0.7712555,9.433655,-8.764435,-0.9528656
1494170602763,-0.39094543,0.6370239,-2.0144196,6.979599,-9.9088745,-0.8570862
1494170602862,-0.23435974,0.4825592,-1.6330566,4.113739,-10.133926,0.2131195
1494170602963,0.08415222,1.0748444,-0.69880676,5.7202454,-11.958298,1.9656677
1494170603062,0.052200317,1.2197266,-1.9355927,5.5670166,-9.638321,0.2610016
1494170603163,-0.18322754,1.3028259,-0.27163696,3.6755981,-3.4493103,1.7094879
1494170603262,-0.76805115,-0.48362732,2.0293274,3.876709,-1.1556702,2.8060303
1494170603363,-1.4359741,0.64341736,3.3417358,7.647583,-5.915344,-0.5051422
1494170603462,-1.1824493,0.62957764,0.6977539,9.625198,-10.60318,-0.2202301
1494170603563,-0.6029358,0.87138367,-1.8482361,9.316345,-11.802689,0.95532227
1494170603662,-0.49427795,1.0620728,-1.7960358,3.9030457,-7.950409,-0.17953491
1494170603763,0.14274597,1.335846,-0.81599426,7.386612,-13.030914,-0.23460388
1494170603863,0.20133972,1.0460968,-1.368866,5.133667,-7.5170593,-0.95526123
1494170603962,0.16192627,0.44528198,0.09161377,4.3292236,-2.8483734,1.4317627
1494170604062,-0.58909607,-1.036499,2.598175,7.0011444,-2.5299377,1.1588287
1494170604163,-1.0929565,0.6018677,2.6365356,10.800751,-7.6080475,-1.132431
1494170604262,-0.5763092,1.2516785,0.25247192,11.902084,-8.611206,-0.12446594
1494170604363,-0.3440857,1.1664581,-1.7480927,7.448868,-8.508255,-0.7325897
1494170604462,-0.3771057,1.0950928,-1.116394,3.9533234,-9.233704,-0.682312
1494170604563,0.21092224,0.73609924,-0.7563324,6.0290985,-11.479462,2.1093292
1494170604662,0.15765381,1.0578003,-1.8429108,3.962906,-9.317505,-0.15559387
1494170604763,-0.29934692,0.5560608,-0.31851196,2.2630157,-5.3407288,2.5929565
1494170604863,-1.1227875,-0.8085327,2.1379852,4.774536,-3.62648,1.8579254
1494170604962,-1.3081512,0.20985413,2.8591766,8.892563,-6.7317657,1.6304779
1494170605063,-0.49960327,1.0620728,-0.30892944,7.0538177,-9.650299,1.1133423
1494170605162,-0.036224365,0.6455536,-1.4785919,6.0243073,-7.7947845,0.5530853
1494170605263,0.03515625,0.41545105,-1.0578003,6.6013184,-9.087662,0.5937958
1494170605362,-0.038345337,0.74035645,-0.7510071,6.031494,-9.87056,-0.96243286
1494170605463,-0.067108154,-0.046875,-1.9952393,4.764969,-10.258423,-2.820343
1494170605562,-0.19706726,-0.525177,-0.6221161,4.750595,-3.4421234,1.2402344
1494170605662,-0.34194946,-0.9938965,1.9696808,5.152817,-1.7805481,1.0558777
1494170605764,-0.5347595,-0.7531433,3.107376,10.077698,-6.722183,-2.236145
1494170605862,-0.09693909,0.7893677,-0.18322754,11.674622,-7.907318,-0.8475189
1494170605963,0.12783813,0.9736481,-1.2697906,7.077759,-6.171524,-1.2856598
1494170606062,-0.034088135,1.1259918,-0.70840454,7.336334,-8.592056,-0.67274475
1494170606162,0.040481567,1.0812378,-0.6721802,7.1017,-10.291946,-0.5602112
1494170606263,0.43782043,0.5763092,-1.4317169,3.7641907,-9.659866,-0.385437
1494170606362,-0.08415222,0.23649597,1.212265,2.1193695,-3.056656,4.192276
1494170606463,-1.2080078,-0.09375,3.5633087,7.307602,-4.483612,0.8308258
1494170606562,-1.2207947,1.5350494,1.8450317,10.025024,-9.973511,-0.81399536
1494170606663,-0.9331665,1.2783203,-1.4924316,10.216553,-9.959152,0.22987366
1494170606762,-0.5241089,0.5858917,-2.2679443,4.343582,-10.7947235,0.019180298
1494170606863,-0.28868103,0.39308167,-1.2815094,2.9190369,-9.815491,0.816452
1494170606962,0.17364502,0.7190552,-1.990982,5.1863403,-12.128296,0.25141907
1494170607063,0.44314575,0.31958008,-0.66685486,3.895874,-7.0310364,0.6728058
1494170607162,0.4229126,-0.7744446,1.9004364,3.373932,-4.081375,1.4437408
1494170607262,-0.7840271,-0.82025146,3.7731628,8.435272,-4.792465,-0.77090454
1494170607363,-0.56565857,0.78297424,1.7715302,13.676178,-11.230469,-2.442047
1494170607462,-0.25886536,0.28656006,-2.1912537,8.4664,-9.786758,-1.3646698
1494170607563,-0.28974915,0.47190857,-2.0442352,5.7729187,-8.156311,-1.0653839
1494170607662,-0.1725769,0.43463135,-1.0130615,4.0802155,-10.069275,-0.86906433
1494170607763,0.16937256,0.78297424,-0.7893677,5.595749,-10.655853,-1.7381592
1494170607862,0.10652161,0.29507446,-0.64234924,4.343582,-7.153137,0.32563782
1494170607963,0.11079407,-0.8042755,2.2988434,3.3499908,-2.5155792,2.1787567
1494170608063,-0.53157043,-0.8831024,3.8306885,9.438446,-6.480377,-1.2281952
1494170608162,-0.22796631,0.5017395,0.031951904,9.814331,-10.861755,-0.8355408
1494170608263,-0.004257202,0.5986786,-1.9078827,6.0123444,-8.812317,-0.3423462
1494170608362,0.028762817,0.7424927,-1.6170654,4.022766,-10.833023,-0.38064575
1494170608462,0.15660095,0.73609924,-0.9342346,4.05867,-10.311096,-0.24417114
1494170608563,0.36006165,0.22583008,-1.2410278,6.6803284,-9.394119,-1.1108704
1494170608662,-0.018112183,0.15660095,-0.11505127,3.1369019,-4.749359,1.8627167
1494170608763,-0.5230408,-0.6721802,2.261551,2.9262085,-3.6863403,1.6209106
1494170608862,-1.0045471,-1.1014862,3.3417358,8.631592,-6.801193,-0.6248474
1494170608963,-0.43463135,-0.24394226,0.14274597,11.119171,-11.527344,0.32086182
1494170609062,-0.14593506,0.42184448,-1.7917786,7.7289886,-9.104416,0.019180298
1494170609163,0.13528442,0.80641174,-1.8631439,5.3132324,-8.855423,-1.8650513
1494170609262,0.12889099,0.5390167,-0.7211914,3.208725,-10.131531,-2.6024628
1494170609362,0.6253052,0.76272583,-0.79148865,6.6851196,-8.979919,-1.2449493
1494170609462,0.5017395,0.028762817,-0.8213196,6.3379517,-6.815567,3.0517578E-5
1494170609563,0.35792542,-0.6167908,1.2548828,3.8934784,-2.7501984,0.9577179
1494170609662,-0.5198517,-0.43037415,3.3214874,7.2669067,-4.1460266,0.5171814
1494170609763,-0.33876038,0.113983154,2.342514,14.530914,-11.682968,-4.829071
1494170609862,-0.0138549805,0.86286926,-1.1590118,8.988327,-7.6726837,0.20832825
1494170609963,0.05645752,1.1547394,-1.973938,5.667572,-10.411652,-0.67274475
1494170610062,-0.13102722,0.7797699,-0.96725464,3.6013794,-10.785141,-0.007156372
1494170610163,0.020233154,0.52197266,-1.1494141,4.963684,-11.177795,1.24263
1494170610262,-0.35580444,1.737442,-1.4338531,5.643631,-5.891403,1.8004761
1494170610363,-1.2207947,1.1483612,0.74461365,3.7450256,-0.8563843,3.0837708
1494170610462,-1.5393066,0.41970825,2.261551,8.475983,-4.028702,-0.23939514
1494170610562,-1.5925751,0.23222351,1.7214661,10.3650055,-8.525024,-2.09729
1494170610663,-1.22612,1.5265198,-0.8042755,8.523865,-14.158569,-1.6256256
1494170610762,-1.275116,0.7819061,-1.8556976,3.5175781,-9.611984,-0.88342285
1494170610863,-0.9662018,1.5478363,-0.88842773,4.3603363,-10.964706,1.08461
1494170610962,-0.2311554,0.7435608,-2.2668762,5.839966,-9.056534,-1.1467896
1494170611063,-0.4186554,0.6008148,-1.0002899,4.4321747,-3.1931305,1.1755829
1494170611163,-0.81918335,0.017044067,1.6032257,4.580612,-1.9266052,1.3240204
1494170611262,-1.1408997,-0.5241089,2.276474,10.525406,-3.62648,-0.57936096
1494170611363,-0.9853668,0.55926514,0.18641663,11.212555,-7.4739685,-1.2545319
1494170611462,-0.9480896,0.88842773,-0.876709,6.5151215,-9.475525,-2.6455536
1494170611563,-1.0279846,1.8130798,-0.17044067,5.310837,-10.567276,-1.9105377
1494170611662,-0.28442383,1.2250519,-1.6351776,5.523926,-10.555298,0.7158966
1494170611763,0.12889099,0.76698303,-1.1078796,3.8240356,-6.619232,1.1205139
1494170611862,0.16192627,0.3014679,1.2708588,3.9676971,-3.5714111,1.6616058
1494170611963,-0.49855042,-0.09693909,3.3811493,5.339569,-4.3830566,0.4190216
1494170612062,-0.7297058,0.55500793,2.9699554,9.208603,-9.104416,-0.682312
1494170612163,-0.42930603,0.2311554,-0.09161377,6.3930206,-12.183365,1.1492462
1494170612262,-0.30360413,1.1803131,-1.608551,4.096985,-11.220886,1.2833252
1494170612363,-0.13635254,1.1046753,-0.86712646,2.1720428,-11.524948,2.832367
1494170612462,0.18855286,0.76486206,-1.0471497,2.152893,-9.645508,0.653656
1494170612562,0.49641418,0.0,-0.5539398,3.7187042,-7.531433,2.353531
1494170612663,-0.25779724,0.45700073,0.95980835,1.5902557,-5.072586,1.8842621
1494170612762,-0.7755127,-0.7787018,2.6333313,4.259781,-5.369461,0.5530853
1494170612863,-0.69348145,0.13955688,2.2349243,6.3164062,-11.299896,0.47169495
1494170612962,-0.40586853,0.5624542,-0.8809662,5.0043793,-11.47467,-0.33755493
1494170613063,0.08735657,0.5763092,-2.3169556,5.181549,-11.656631,2.0159454
1494170613162,0.024505615,0.94595337,-2.090042,2.0786743,-8.050964,0.10777283
1494170613263,0.010650635,0.71798706,-0.43249512,6.0674133,-13.29187,-0.80441284
1494170613363,0.57310486,-0.8692627,-1.5904388,2.8759308,-7.9288635,-2.3630524
1494170613462,0.6466217,-0.80960083,0.5709839,2.638916,-5.915344,0.8308258
1494170613563,-0.045806885,-1.1195984,2.996582,6.6898956,-5.460449,-0.2992401
1494170613662,-0.13742065,-0.41758728,2.754776,10.04657,-8.886551,-1.7788544
1494170613762,-0.018112183,0.22477722,0.16618347,6.4049835,-11.206528,0.6105499
1494170613863,0.113983154,0.5017395,-1.688446,5.77771,-9.49707,-0.4907837
1494170613962,0.08735657,0.26844788,-2.0485077,4.872696,-10.924011,0.22268677
1494170614063,-0.30039978,0.81173706,-1.1025543,2.0212097,-9.59523,0.27296448
1494170614162,0.26524353,0.76911926,-1.2303772,5.035507,-11.455521,1.3910675
1494170614263,0.60614014,0.39308167,-1.275116,2.5311737,-8.637543,0.92658997
1494170614362,0.40161133,-0.42077637,0.7776489,3.196762,-5.6447906,2.0901642
1494170614463,-0.3291626,-0.90867615,2.6642303,4.877487,-6.190674,-0.09094238
1494170614562,-0.7424927,-0.8511505,3.024292,7.0011444,-7.483536,-0.055038452
1494170614663,-0.21305847,1.0269165,0.3057251,9.6970215,-12.556854,4.259323
1494170614762,0.5230408,0.33876038,-2.0453033,6.5199127,-11.615936,1.0247498
1494170614863,0.80960083,0.16618347,-2.2189484,3.4744873,-7.684662,-0.4548645
1494170614962,0.9779053,-0.8010864,-1.0844421,5.8351746,-10.689377,0.021575928
1494170615062,0.9150696,-0.49427795,-0.9970856,4.0059967,-8.637543,-0.59851074
1494170615163,0.79681396,-0.5432892,0.07243347,3.7641907,-6.5210724,0.033554077
1494170615262,0.36431885,-0.827713,1.8951111,5.171982,-6.1547546,-1.1013031
1494170615363,-0.32276917,-1.0961609,2.9752808,7.824753,-6.868225,0.11256409
1494170615462,0.2748413,-0.8127899,1.2804413,9.886154,-9.295959,2.7749176
1494170615562,0.7233124,-0.431427,-0.9299774,7.1519775,-7.9288635,1.4700775
1494170615663,0.47937012,0.047943115,-1.5361176,5.3419647,-10.40686,2.2218475
1494170615762,0.5624542,0.19494629,-1.036499,2.67482,-10.366165,0.15325928
1494170615862,0.91293335,-0.44314575,-1.0673981,3.797699,-12.228851,1.2306519
1494170615963,0.8309021,0.019180298,-0.9523468,4.3555603,-7.526642,1.302475
1494170616062,0.36857605,-0.59121704,1.1472931,1.9685364,-5.577759,2.4277496
1494170616163,-0.2982788,-0.5571289,2.4959106,4.4273834,-6.9664,1.0367279
1494170616262,-0.747818,-0.98324585,3.0349426,6.0889587,-8.319122,0.60098267
1494170616363,-0.5006714,-0.10972595,0.96513367,8.0928955,-13.29187,0.14129639
1494170616462,0.20133972,0.8010864,-2.2274628,6.433716,-10.160263,2.3032532
1494170616563,0.70840454,0.61465454,-2.229599,3.4960327,-9.631134,0.46211243
1494170616662,0.6018677,-0.3952179,-0.52731323,2.904663,-10.976685,1.0582733
1494170616763,0.8309021,-0.19706726,-1.2069397,4.312454,-9.04216,-0.89779663
1494170616862,0.95448303,-0.99069214,-0.5901489,3.0746613,-8.268845,0.66082764
1494170616962,0.6221161,-0.81918335,1.7864532,3.634903,-5.3598785,1.515564
1494170617063,-0.4229126,-0.2503357,3.5601196,7.513504,-7.4619904,0.3687439
1494170617162,-0.31105042,-1.8716736,2.2413177,7.2022552,-10.277573,-0.8570862
1494170617263,-0.16511536,-0.43249512,-0.94488525,8.590897,-8.876968,0.17240906
1494170617363,-0.11505127,0.08735657,-2.2583618,5.9309387,-11.47467,0.062286377
1494170617462,0.078826904,0.349411,-1.7331848,2.784958,-10.878525,1.8986359
1494170617563,0.1725769,0.58695984,-0.61997986,2.6365204,-11.074844,3.2896729
1494170617663,0.55500793,0.54222107,-1.432785,4.4824524,-10.217728,-0.71343994
1494170617762,0.76805115,0.28868103,-0.91612244,3.2805634,-6.6240234,1.6999207
1494170617862,0.8223877,-0.47084045,1.1408997,3.943756,-4.8331604,2.480423
1494170617963,0.45593262,-0.7978821,2.13266,5.3132324,-7.258484,2.6959076
1494170618062,-0.44314575,-0.8181305,2.615219,5.7250366,-5.8650665,1.8435669
1494170618163,-0.5997467,0.0234375,1.5233307,7.8103943,-9.422852,-0.49317932
1494170618262,-0.60720825,0.16618347,-1.2207947,7.508713,-10.58403,-1.0558167
1494170618363,-0.49002075,0.32383728,-2.438385,5.583786,-10.775574,1.3934631
1494170618462,-0.31744385,0.75527954,-1.3954926,2.7729797,-9.602417,1.2929077
1494170618563,0.37390137,1.1984253,-1.6468964,5.978821,-11.599182,1.0678406
1494170618663,0.88630676,0.53689575,-1.720398,5.5502625,-6.765274,3.1914978
1494170618762,0.40586853,-0.2790985,0.24926758,4.2023315,-2.1732025,1.3407898
1494170618863,-0.6721802,0.41438293,1.6106873,8.133606,-4.7780914,0.62731934
1494170618962,-0.65727234,-0.50813293,2.3371887,7.6140594,-4.6129,-0.5913391
1494170619063,-1.1781769,0.055389404,1.1984253,11.248459,-9.03978,-0.69429016
1494170619162,-0.68922424,-0.18534851,-1.0013428,10.242889,-9.257645,2.5498505
1494170619262,-0.5773773,1.7566223,-0.9938965,4.970871,-9.774796,1.3766937
1494170619363,-0.28123474,1.4317169,-1.1898956,4.7170715,-10.004639,0.19396973
1494170619463,0.06498718,0.19068909,-1.5648804,8.475983,-8.769226,-1.3574829
1494170619562,0.17150879,0.34727478,-0.76379395,5.6148987,-2.6831665,1.5251312
1494170619663,-0.1960144,0.15020752,1.9867249,3.658844,-2.1564484,2.1548157
1494170619762,-0.9789734,-0.0745697,3.7987366,6.8000336,-5.5921173,-0.9935608
1494170619863,-0.874588,0.81599426,1.3028259,8.696243,-12.097168,-0.53627014
1494170619962,-0.45167542,0.21411133,-1.7608795,8.854263,-8.252075,0.29212952
1494170620063,-0.47616577,0.24819946,-1.976059,5.8231964,-10.651077,0.52197266
1494170620162,-0.700943,1.6192017,-0.9193268,3.4816742,-9.643112,0.80448914
1494170620262,-0.17790222,1.8929749,-2.024002,4.5351257,-10.471512,-0.6871033
1494170620362,0.20985413,0.9299774,-0.81599426,3.2709808,-5.1587677,3.8738556
1494170620463,-0.33769226,0.36325073,1.688446,3.0554962,-2.4700775,4.264099
1494170620562,-1.1291809,0.20240784,3.328949,4.915802,-4.7780914,1.3910675
1494170620663,-1.415741,1.2740631,2.3606262,9.4839325,-10.526566,-0.28009033
1494170620762,-0.9736481,0.8735199,-1.35289,7.805603,-11.6757965,-1.4508514
1494170620863,-0.7467499,0.2972107,-3.0019226,6.373871,-11.319046,0.3328247
1494170620962,-0.91186523,1.7640839,-1.8407745,2.7394714,-8.970337,1.5323181
1494170621062,-0.06604004,0.9662018,-1.6202698,5.9381256,-10.34462,0.040740967
1494170621163,0.2194519,0.4825592,-0.8223877,6.4361115,-6.3079834,0.8284302
1494170621262,-0.04899597,0.06285095,1.1504822,3.797699,-3.3008728,2.2721252
1494170621363,-0.6466217,-0.8692627,3.1084442,6.524704,-3.9329376,-0.1914978
1494170621462,-0.61253357,-0.6274414,2.5118866,11.231705,-8.613602,-1.168335
1494170621563,-0.36857605,0.08628845,-0.5507355,10.922852,-7.6248016,0.2418518
1494170621662,-0.5528717,1.0812378,-1.6234589,6.3762665,-9.202576,-0.96961975
1494170621763,-0.46339417,1.0780487,-1.163269,3.3715363,-10.076462,-0.21066284
1494170621863,0.255661,0.60720825,-0.956604,4.3962555,-12.669388,1.405426
1494170621962,0.27696228,0.19813538,-1.146225,4.5901794,-8.21138,-0.50035095
1494170622063,-0.16937256,-0.17576599,1.1142731,3.9820557,-4.289673,1.4317627
1494170622162,-0.5954895,-0.34301758,3.170227,4.7122955,-5.383835,0.16044617
1494170622263,-0.6327667,-0.48362732,2.5097656,7.1950836,-8.908096,-2.377411
1494170622362,-0.5496826,-0.06285095,-0.8213196,8.44725,-9.300735,-0.61528015
1494170622463,-0.50813293,0.86286926,-1.8439789,7.235779,-9.683807,-1.9368744
1494170622562,-0.41333008,0.49855042,-1.6596832,3.4840698,-9.544952,-1.0558167
1494170622663,-0.16085815,1.0716553,-1.1068115,4.1089478,-11.855362,-1.6950684
1494170622762,0.08203125,0.5709839,-1.5542145,5.8902435,-7.47876,-4.0916595
